Flight State,Time ms,BNO Temperature C,MPL Temperature C,X Acceleration m/s^2,Y Acceleration m/s^2,Z Acceleration m/s^2,BNO Gyro X rad/s,BNO Gyro Y rad/s,BNO Gyro Z rad/s,L3G Gyro X rad/s,L3G Gyro Y rad/s,L3G Gyro Z rad/s,Altitude m,Pressure Pa,Kalman Altitude,Kalman Velocity,Kalman Z Acceleration,Covariance (3x3 Matrix)
0,1940,14,12.25000000,-0.31000000,-0.02000000,-0.38000000,-0.87500000,6.62500000,-5.62500000,-0.02382374,-0.13973543,-0.16355917,351.06250000,1404.25000000,350.99998676,-0.00978536,-0.01601533,0.00940857,0.00856635,0.00313659,0.00856635,0.01816697,0.01028373,0.00313659,0.01028373,0.01785826
0,2324,14,12.31250000,-0.24000000,0.05000000,-0.35000000,4.50000000,9.43750000,-1.62500000,-0.15134187,-0.11560625,-0.13652839,351.50000000,1406.00000000,351.04345063,0.00921921,-0.01904340,0.01609070,0.01526238,0.00638976,0.01526238,0.02431704,0.01435118,0.00638976,0.01435118,0.01719974
0,2709,14,12.37500000,0.18000000,0.74000000,-0.38000000,12.31250000,-0.37500000,-16.37500000,-0.21975878,-0.09208793,-0.29016098,351.81250000,1407.25000000,351.16621294,0.08054793,-0.00250401,0.02435418,0.02169088,0.00900054,0.02169088,0.02920000,0.01623867,0.00900054,0.01623867,0.01575530
0,3093,14,12.43750000,-0.24000000,0.12000000,-0.48000000,-7.06250000,-8.75000000,-15.81250000,0.05558873,-0.02412918,-0.11636983,352.31250000,Flight State,Time ms,BNO Temperature C,MPL Temperature C,X Acceleration m/s^2,Y Acceleration m/s^2,Z Acceleration m/s^2,BNO Gyro X rad/s,BNO Gyro Y rad/s,BNO Gyro Z rad/s,L3G Gyro X rad/s,L3G Gyro Y rad/s,L3G Gyro Z rad/s,Altitude m,Pressure Pa,Kalman Altitude,Kalman Velocity,Kalman Z Acceleration,Covariance (3x3 Matrix)
0,2227,11,8.93750000,0.01000000,0.31000000,-0.01000000,-1.62500000,0.62500000,1.00000000,0.01313360,-0.00580322,-0.09285152,358.25000000,1433.00000000,357.35706750,-0.00025203,-0.00042146,0.00918925,0.00830486,0.00300433,0.00830486,0.01790201,0.01006458,0.00300433,0.01006458,0.01785826
0,2612,11,9.00000000,-0.36000000,-0.26000000,-1.00000000,-8.56250000,-17.43750000,30.93750000,-0.11377365,0.27427849,0.30604348,359.37500000,1437.50000000,357.55342755,0.10960728,-0.00031004,0.01575997,0.01496425,0.00625436,0.01496425,0.02405022,0.01421517,0.00625436,0.01421517,0.01723688
0,2996,11,9.12500000,0.03000000,0.24000000,0.08000000,3.00000000,6.50000000,-7.56250000,-0.03268129,0.10506882,-0.24877486,359.56250000,1438.25000000,357.92803995,0.35267037,0.07924132,0.02400042,0.02144402,0.00891377,0.02144402,0.02903170,0.01619696,0.00891377,0.01619696,0.01582187
0,3380,11,9.12500000,-0.32000000,1.91000000,2.63000000,45.37500000,32.25000000,-21.43750000,0.00839940,-0.34712416,-0.41355577,360.62500000,1442.50000000,358.73951986,0.90623053,0.29590070,0.03161279,0.02595346,0.01022011,0.02595346,0.03138754,0.01624010,0.01022011,0.01624010,0.01399403
0,3764,12,9.18750000,0.12000000,-0.29000000,-0.05000000,-20.00000000,-9.62500000,-2.56250000,0.18142699,0.14217888,-0.19150625,360.62500000,1442.50000000,359.60917793,1.33608563,0.38591628,0.03707198,0.02802246,0.01033996,0.02802246,0.03147452,0.01520446,0.01033996,0.01520446,0.01223765
0,4148,12,9.18750000,-0.34000000,0.16000000,0.42000000,-12.18750000,0.68750000,-3.93750000,0.14263703,-0.02611449,-0.19792034,361.12500000,1444.50000000,360.60448663,1.75916617,0.46439809,0.04024810,0.02831616,0.00982767,0.02831616,0.03037690,0.01386872,0.00982767,0.01386872,0.01081534
0,4532,12,9.18750000,0.40000000,0.55000000,-2.03000000,115.31250000,100.68750000,65.25000000,-2.02853084,-1.76952398,1.26815629,361.06250000,1444.25000000,361.39524626,1.93893925,0.42959619,0.04168327,0.02766002,0.00911187,0.02766002,0.02891579,0.01263097,0.00911187,0.01263097,0.00976739
0,4916,12,9.25000000,0.77000000,0.65000000,0.30000000,75.87500000,-5.87500000,-14.75000000,-0.41080686,-0.12583824,-0.38789943,359.06250000,1436.25000000,361.40197116,1.69142495,0.31678736,0.04217205,0.02674383,0.00845001,0.02674383,0.02757995,0.01164669,0.00845001,0.01164669,0.00903577
0,5300,12,9.25000000,0.02000000,-0.24000000,0.42000000,9.06250000,6.06250000,-21.00000000,-0.21426098,-0.08597928,-0.53985214,358.93750000,1435.75000000,361.26172738,1.39830522,0.21034040,0.04211550,0.02581550,0.00789819,0.02581550,0.02646793,0.01090016,0.00789819,0.01090016,0.00853784
0,5684,12,9.25000000,0.54000000,-0.19000000,0.09000000,15.25000000,3.06250000,2.12500000,-0.28008172,-0.06673703,-0.09926560,359.12500000,1436.50000000,361.10597301,1.12514457,0.11953261,0.04181463,0.02500736,0.00746944,0.02500736,0.02560064,0.01035523,0.00746944,0.01035523,0.00820675
0,6068,12,9.25000000,0.86000000,0.08000000,0.58000000,2.62500000,-7.31250000,7.87500000,0.03420845,0.21792617,-0.03665191,359.18750000,1436.75000000,360.92465644,0.87605952,0.05180871,0.04143772,0.02435666,0.00715021,0.02435666,0.02495024,0.00996848,0.00715021,0.00996848,0.00799171
0,6451,12,9.25000000,0.38000000,-0.92000000,-0.37000000,12.18750000,-2.06250000,-5.50000000,-0.27733281,-0.05742133,-0.22922719,359.56250000,1438.25000000,360.81236303,0.67277443,-0.00747557,0.04107054,0.02385779,0.00691989,0.02385779,0.02447659,0.00970113,0.00691989,0.00970113,0.00785600
0,6836,12,9.25000000,0.67000000,-0.52000000,-0.33000000,22.25000000,-0.43750000,9.25000000,-0.38499781,-0.06322455,0.13713925,359.56250000,1438.25000000,360.65903202,0.47017587,-0.05925875,0.04075124,0.02348904,0.00675836,0.02348904,0.02414093,0.00952164,0.00675836,0.00952164,0.00777362
0,7220,12,9.25000000,0.35000000,-0.61000000,0.08000000,1.81250000,3.75000000,10.87500000,-0.06123924,-0.07513642,0.05436701,359.31250000,1437.25000000,360.40357836,0.24646468,-0.10548853,0.04049200,0.02322502,0.00664843,0.02322502,0.02391000,0.00940533,0.00664843,0.00940533,0.00772631
0,7604,12,9.25000000,0.71000000,-2.38000000,-1.53000000,-183.37500000,-52.37500000,18.12500000,3.14061093,0.80481493,-0.05681047,359.56250000,1438.25000000,360.19721285,0.04633815,-0.15926799,0.04029170,0.02304191,0.00657621,0.02304191,0.02375664,0.00933332,0.00657621,0.00933332,0.00770139
0,7988,12,9.25000000,0.48000000,0.85000000,0.69000000,-27.87500000,11.68750000,-2.12500000,0.68477994,-0.17883080,-0.12034045,361.68750000,1446.75000000,360.69245152,0.22843283,-0.09329399,0.04014320,0.02291931,0.00653081,0.02291931,0.02365923,0.00929145,0.00653081,0.00929145,0.00769018
0,8372,12,9.25000000,0.55000000,-0.35000000,-0.03000000,5.06250000,12.18750000,2.12500000,-0.30451632,-0.22113322,-0.09056076,360.75000000,1443.00000000,360.79205293,0.20293650,-0.09059379,0.04003722,0.02284063,0.00650392,0.02284063,0.02360095,0.00926928,0.00650392,0.00926928,0.00768688
0,8756,12,9.25000000,0.23000000,0.38000000,-0.14000000,8.62500000,-5.81250000,5.31250000,-0.16615535,0.02641992,-0.09575313,360.81250000,1443.25000000,360.86848372,0.17031310,-0.09102689,0.03996446,0.02279281,0.00648935,0.02279281,0.02356897,0.00925938,0.00648935,0.00925938,0.00768773
0,9140,12,9.31250000,0.53000000,0.64000000,-0.68000000,-17.68750000,-11.81250000,-15.62500000,-0.00885755,0.04718934,-0.23884831,360.37500000,1441.50000000,360.76066423,0.04869240,-0.11814045,0.03991660,0.02276591,0.00648258,0.02276591,0.02355382,0.00925660,0.00648258,0.00925660,0.00769042
0,9524,12,9.31250000,0.74000000,0.48000000,0.49000000,15.12500000,4.56250000,-15.00000000,-0.35628715,-0.08643743,-0.52335876,359.93750000,1439.75000000,360.51967568,-0.10432078,-0.13633881,0.03988668,0.02275255,0.00648045,0.02275255,0.02354874,0.00925754,0.00648045,0.00925754,0.00769359
0,9908,12,9.31250000,-0.41000000,-1.58000000,1.96000000,4.75000000,-14.12500000,-29.12500000,-0.12843442,0.27061331,-0.52274793,359.43750000,1437.75000000,360.16138236,-0.26807443,-0.13825140,0.03986917,0.02274748,0.00648084,0.02274748,0.02354914,0.00926008,0.00648084,0.00926008,0.00769656
0,10292,12,9.37500000,-0.01000000,-0.54000000,-0.21000000,-8.00000000,9.43750000,-3.62500000,0.27061331,-0.34162638,-0.04764749,359.62500000,1438.50000000,359.87819265,-0.40195600,-0.15749660,0.03985986,0.02274707,0.00648237,0.02274707,0.02355205,0.00926301,0.00648237,0.00926301,0.00769901
0,10676,12,9.37500000,0.55000000,-1.67000000,0.21000000,-3.50000000,58.75000000,16.25000000,-0.01496620,-0.99784839,0.09117164,359.25000000,1437.00000000,359.52070863,-0.54658274,-0.17233213,0.03985569,0.02274895,0.00648424,0.02274895,0.02355570,0.00926568,0.00648424,0.00926568,0.00770088
0,11060,12,9.37500000,0.39000000,-1.04000000,-0.65000000,-6.00000000,13.37500000,27.56250000,0.20937406,-0.11850785,0.19242254,359.12500000,1436.50000000,359.16689222,-0.68203263,-0.19313195,0.03985452,0.02275166,0.00648601,0.02275166,0.02355914,0.00926785,0.00648601,0.00926785,0.00770223
0,11444,12,9.37500000,0.56000000,0.59000000,2.51000000,-23.43750000,-52.81250000,24.12500000,-0.10247265,1.03266764,-0.07788532,358.87500000,1435.50000000,358.84466220,-0.73607445,-0.15676951,0.03985493,0.02275439,0.00648748,0.02275439,0.02356196,0.00926948,0.00648748,0.00926948,0.00770314
0,11828,12,9.37500000,0.22000000,-0.83000000,-3.07000000,-24.12500000,-12.75000000,-57.43750000,0.39446622,0.08384126,-0.97616267,358.81250000,1435.25000000,358.49517407,-0.86830556,-0.20564867,0.03985602,0.02275674,0.00648861,0.02275674,0.02356406,0.00927061,0.00648861,0.00927061,0.00770373
0,12212,12,9.43750000,-1.63000000,3.21000000,-2.52000000,19.37500000,59.25000000,59.00000000,-0.30650166,-1.03770733,1.17576289,358.68750000,1434.75000000,358.17258642,-0.97193550,-0.23654326,0.03985728,0.02275857,0.00648942,0.02275857,0.02356552,0.00927137,0.00648942,0.00927137,0.00770410
0,12596,12,9.43750000,1.04000000,-1.58000000,1.92000000,34.25000000,-17.37500000,-22.62500000,-0.31520644,0.42027527,-0.60765821,358.62500000,1434.50000000,357.96350278,-0.94478833,-0.18326974,0.03985844,0.02275990,0.00648996,0.02275990,0.02356646,0.00927185,0.00648996,0.00927185,0.00770431
0,12980,12,9.43750000,-0.23000000,-0.49000000,2.89000000,-6.31250000,3.87500000,31.75000000,0.01908954,-0.05879578,0.34590244,358.25000000,1433.00000000,357.73104881,-0.90064084,-0.12036295,0.03985939,0.02276080,0.00649031,0.02276080,0.02356703,0.00927213,0.00649031,0.00927213,0.00770443
0,13364,12,9.43750000,2.14000000,2.33000000,-5.44000000,-1.81250000,-12.75000000,-5.18750000,0.01572978,-0.23609942,-0.25915956,358.37500000,1433.50000000,357.49632125,-0.97464811,-0.18609914,0.03986010,0.02276138,0.00649053,0.02276138,0.02356735,0.00927230,0.00649053,0.00927230,0.00770449
0,13748,12,9.43750000,-1.95000000,-2.03000000,-3.52000000,5.12500000,-4.62500000,-11.87500000,-0.15210545,-0.25579983,-0.60720009,358.31250000,1433.25000000,357.31553274,-1.00196811,-0.21245359,0.03986060,0.02276173,0.00649065,0.02276173,0.02356752,0.00927239,0.00649065,0.00927239,0.00770451
0,14132,13,9.50000000,5.52000000,-0.79000000,-0.11000000,-48.62500000,-43.43750000,105.50000000,1.27273774,1.10826218,1.27548659,357.87500000,1431.50000000,357.09717186,-0.99751236,-0.18992420,0.03986094,0.02276192,0.00649072,0.02276192,0.02356759,0.00927243,0.00649072,0.00927243,0.00770452
0,14516,13,9.50000000,-0.32000000,-5.12000000,1.93000000,65.81250000,8.12500000,-14.18750000,-0.69027770,-0.05375614,-0.39553523,357.68750000,1430.75000000,356.92480989,-0.93297882,-0.13247097,0.03986115,0.02276202,0.00649075,0.02276202,0.02356763,0.00927245,0.00649075,0.00927245,0.00770452
0,14900,13,9.50000000,-0.01000000,2.49000000,1.32000000,-95.75000000,10.06250000,-28.68750000,1.43782401,0.09697486,-0.62399882,358.25000000,1433.00000000,357.00299755,-0.75303070,-0.06100270,0.03986128,0.02276207,0.00649076,0.02276207,0.02356764,0.00927246,0.00649076,0.00927246,0.00770451
0,15286,13,9.50000000,0.30000000,1.71000000,-4.26000000,89.62500000,-81.56250000,36.56250000,-1.22921360,1.00701141,1.47951555,357.81250000,1431.25000000,356.89951003,-0.75379460,-0.10244806,0.03986136,0.02276209,0.00649077,0.02276209,0.02356764,0.00927246,0.00649077,0.00927246,0.00770451
0,15668,13,9.50000000,0.82000000,-1.99000000,-3.88000000,61.00000000,-61.25000000,-32.50000000,-0.00122173,0.58643061,-0.91018921,357.81250000,1431.25000000,356.83236174,-0.74519240,-0.13325189,0.03986139,0.02276209,0.00649077,0.02276209,0.02356763,0.00927246,0.00649077,0.00927246,0.00770450
0,16052,13,9.56250000,0.67000000,-0.46000000,-0.94000000,3.50000000,14.75000000,23.81250000,-0.07223482,-0.30390546,0.49602258,357.62500000,1430.50000000,356.77658669,-0.69710238,-0.11834467,0.03986141,0.02276209,0.00649077,0.02276209,0.02356763,0.00927245,0.00649077,0.00927245,0.00770449
0,16436,13,9.56250000,-0.37000000,1.19000000,-0.29000000,3.62500000,84.75000000,42.43750000,-0.15439618,-1.41002965,0.74586648,357.75000000,1431.00000000,356.80780864,-0.60173923,-0.08662154,0.03986142,0.02276208,0.00649077,0.02276208,0.02356762,0.00927245,0.00649077,0.00927245,0.00770448
0,16820,13,9.56250000,1.24000000,-0.99000000,-0.78000000,14.06250000,17.37500000,3.81250000,-0.23777929,-0.29688051,-0.17226399,357.50000000,1430.00000000,356.78011832,-0.54815204,-0.07349156,0.03986142,0.02276208,0.00649076,0.02276208,0.02356762,0.00927244,0.00649076,0.00927244,0.00770448
0,17204,13,9.56250000,1.03000000,1.06000000,-0.45000000,2.37500000,-42.87500000,-16.62500000,-0.20005836,0.71364337,-0.43188173,357.37500000,1429.50000000,356.74815352,-0.49663359,-0.05847702,0.03986142,0.02276207,0.00649076,0.02276207,0.02356761,0.00927244,0.00649076,0.00927244,0.00770448
0,17588,13,9.56250000,1.32000000,-0.84000000,-0.37000000,45.87500000,-64.75000000,-42.50000000,-0.78511453,1.03618014,-0.81351984,357.50000000,1430.00000000,356.78766544,-0.41459155,-0.03704251,0.03986142,0.02276207,0.00649076,0.02276207,0.02356761,0.00927243,0.00649076,0.00927243,0.00770447
0,17972,13,9.56250000,0.20000000,0.09000000,0.32000000,50.37500000,-43.31250000,-0.62500000,-0.83428919,0.65438938,-0.11789699,357.68750000,1430.75000000,356.91774835,-0.28687640,0.00058815,0.03986142,0.02276206,0.00649076,0.02276206,0.02356760,0.00927243,0.00649076,0.00927243,0.00770447
0,18356,13,9.56250000,-0.26000000,-0.22000000,0.17000000,-22.12500000,62.50000000,17.62500000,0.31871894,-1.06840324,0.50274211,357.81250000,1431.25000000,357.09455337,-0.14994138,0.03469838,0.03986141,0.02276206,0.00649075,0.02276206,0.02356760,0.00927243,0.00649075,0.00927243,0.00770447
0,18740,13,9.56250000,0.21000000,-1.75000000,0.89000000,-23.43750000,2.56250000,36.25000000,0.30863968,0.05742133,0.40072760,357.50000000,1430.00000000,357.18226362,-0.05666833,0.06325475,0.03986141,0.02276206,0.00649075,0.02276206,0.02356759,0.00927242,0.00649075,0.00927242,0.00770447
0,19124,13,9.62500000,0.40000000,1.17000000,0.14000000,-11.25000000,-6.31250000,22.75000000,0.11102475,0.10888673,0.35048392,357.43750000,1429.75000000,357.24732936,0.00709066,0.07342354,0.03986141,0.02276205,0.00649075,0.02276205,0.02356759,0.00927242,0.00649075,0.00927242,0.00770447
0,19508,13,9.62500000,0.62000000,-0.36000000,-1.15000000,-22.18750000,54.12500000,19.81250000,0.33078352,-1.02457368,0.19792034,357.50000000,1430.00000000,357.31541435,0.04410926,0.06158054,0.03986141,0.02276205,0.00649075,0.02276205,0.02356759,0.00927242,0.00649075,0.00927242,0.00770447
0,19892,13,9.62500000,-0.63000000,0.97000000,0.89000000,-2.06250000,13.68750000,-63.68750000,-0.02535091,-0.35689801,-0.92423916,357.56250000,1430.25000000,357.42842978,0.12350023,0.08393246,0.03986141,0.02276205,0.00649075,0.02276205,0.02356758,0.00927242,0.00649075,0.00927242,0.00770447
0,20276,13,9.62500000,0.56000000,-1.24000000,-0.60000000,23.68750000,0.56250000,-7.93750000,-0.33276883,0.13393220,-0.05390886,357.68750000,1430.75000000,357.55245195,0.17801761,0.08118805,0.03986140,0.02276205,0.00649075,0.02276205,0.02356758,0.00927242,0.00649075,0.00927242,0.00770447
0,20660,13,9.62500000,0.24000000,0.16000000,0.34000000,-20.43750000,6.12500000,26.00000000,0.22770002,-0.18203785,0.38331792,357.75000000,1431.00000000,357.69293762,0.24428262,0.09206626,0.03986140,0.02276205,0.00649075,0.02276205,0.02356758,0.00927242,0.00649075,0.00927242,0.00770447
0,21044,13,9.62500000,0.58000000,0.27000000,-0.43000000,-7.00000000,24.56250000,-0.87500000,0.06154468,-0.25045475,0.02886338,357.50000000,1430.00000000,357.72309077,0.23858996,0.07628103,0.03986140,0.02276205,0.00649075,0.02276205,0.02356758,0.00927242,0.00649075,0.00927242,0.00770447
0,21428,13,9.62500000,0.46000000,-0.46000000,-0.13000000,-3.87500000,3.31250000,1.56250000,-0.00259618,0.02183843,-0.07559457,357.56250000,1430.25000000,357.76531984,0.23902628,0.06692002,0.03986140,0.02276205,0.00649075,0.02276205,0.02356758,0.00927242,0.00649075,0.00927242,0.00770447
0,21812,13,9.62500000,0.47000000,-0.32000000,0.55000000,109.12500000,-42.56250000,-33.31250000,-1.80083072,0.74235398,-0.79076505,356.93750000,1427.75000000,357.60701455,0.15291686,0.04614239,0.03986140,0.02276205,0.00649075,0.02276205,0.02356758,0.00927242,0.00649075,0.00927242,0.00770447
0,22196,13,9.62500000,0.52000000,-1.16000000,0.22000000,14.12500000,11.00000000,-9.18750000,-0.45173484,-0.15286903,-0.19211711,355.75000000,1423.00000000,357.08348388,-0.10102072,-0.01515329,0.03986140,0.02276205,0.00649075,0.02276205,0.02356758,0.00927242,0.00649075,0.00927242,0.00770447
0,22580,13,9.62500000,0.19000000,-0.94000000,-1.17000000,-91.12500000,8.56250000,53.56250000,1.19561601,-0.33719760,0.85124069,355.68750000,1422.75000000,356.58306372,-0.34079757,-0.08248094,0.03986140,0.02276205,0.00649075,0.02276205,0.02356758,0.00927242,0.00649075,0.00927242,0.00770447
0,22964,13,9.62500000,0.73000000,1.94000000,0.96000000,-84.31250000,-24.93750000,27.12500000,1.43797672,0.45280385,0.44425175,356.93750000,1427.75000000,356.57645356,-0.29538660,-0.05224764,0.03986140,0.02276205,0.00649075,0.02276205,0.02356758,0.00927242,0.00649075,0.00927242,0.00770447
0,23348,13,9.62500000,0.98000000,0.85000000,1.05000000,-87.43750000,-22.25000000,28.50000000,1.59527457,0.55390203,0.36147952,357.18750000,1428.75000000,356.67156276,-0.19898880,-0.01223956,0.03986140,0.02276205,0.00649075,0.02276205,0.02356758,0.00927242,0.00649075,0.00927242,0.00770447
0,23732,13,9.62500000,1.00000000,0.33000000,2.23000000,-15.18750000,-65.31250000,34.87500000,0.06414085,0.93019503,0.36651915,357.06250000,1428.25000000,356.75519845,-0.09350049,0.03917436,0.03986140,0.02276205,0.00649075,0.02276205,0.02356758,0.00927242,0.00649075,0.00927242,0.00770447
0,24116,13,9.62500000,-0.56000000,1.24000000,-1.06000000,-56.68750000,53.37500000,-30.93750000,0.65683287,-0.99937558,-0.35995236,357.37500000,1429.50000000,356.90074072,-0.01216333,0.04221997,0.03986140,0.02276205,0.00649075,0.02276205,0.02356758,0.00927242,0.00649075,0.00927242,0.00770447
0,24500,13,9.62500000,0.76000000,1.72000000,1.32000000,6.75000000,-4.18750000,11.93750000,-0.21960606,0.00198531,0.26129761,357.06250000,1428.25000000,356.97122130,0.05763913,0.06926164,0.03986140,0.02276205,0.00649075,0.02276205,0.02356758,0.00927242,0.00649075,0.00927242,0.00770447
0,24884,13,9.68750000,1.37000000,-0.69000000,0.51000000,41.00000000,-39.00000000,42.75000000,-0.57650405,0.57910025,0.28481591,357.06250000,1428.25000000,357.03429592,0.10782146,0.07971684,0.03986140,0.02276205,0.00649075,0.02276205,0.02356758,0.00927242,0.00649075,0.00927242,0.00770447
0,25268,13,9.62500000,-0.15000000,-0.26000000,-0.25000000,10.93750000,-4.68750000,9.43750000,-0.31994066,-0.00626137,-0.14721853,356.81250000,1427.25000000,357.00555997,0.09761429,0.06637525,0.03986140,0.02276205,0.00649075,0.02276205,0.02356758,0.00927242,0.00649075,0.00927242,0.00770447
0,25652,13,9.68750000,-0.58000000,-0.43000000,-0.71000000,-16.87500000,-11.62500000,-36.81250000,0.13271047,-0.11285735,-0.94882643,357.18750000,1428.75000000,357.09251676,0.13184744,0.05946128,0.03986140,0.02276205,0.00649075,0.02276205,0.02356758,0.00927242,0.00649075,0.00927242,0.00770447
0,26036,13,9.62500000,-0.77000000,-0.37000000,-0.17000000,19.00000000,18.12500000,-13.50000000,-0.41141775,-0.35537085,-0.33643404,356.81250000,1427.25000000,357.05466504,0.10761489,0.04575999,0.03986140,0.02276205,0.00649075,0.02276205,0.02356758,0.00927242,0.00649075,0.00927242,0.00770447
0,26420,13,9.62500000,0.16000000,-0.87000000,-0.71000000,-32.56250000,37.81250000,26.06250000,0.65255684,-0.40866885,0.34238997,355.18750000,1420.75000000,356.49547573,-0.16959183,-0.03142141,0.03986140,0.02276205,0.00649075,0.02276205,0.02356758,0.00927242,0.00649075,0.00927242,0.00770447
0,26804,13,9.68750000,-0.34000000,1.11000000,-1.06000000,42.62500000,-62.75000000,-43.68750000,-0.74540836,1.02701712,-0.68539077,356.25000000,1425.00000000,356.33408665,-0.24190774,-0.05688575,0.03986140,0.02276205,0.00649075,0.02276205,0.02356758,0.00927242,0.00649075,0.00927242,0.00770447
0,27188,13,9.68750000,-0.46000000,-0.71000000,1.48000000,-0.31250000,-20.06250000,5.50000000,-0.33658674,0.25595254,-0.05604688,356.68750000,1426.75000000,356.37474836,-0.17539998,-0.01853962,0.03986140,0.02276205,0.00649075,0.02276205,0.02356758,0.00927242,0.00649075,0.00927242,0.00770447
0,27572,13,9.68750000,-0.16000000,-0.17000000,-0.72000000,-0.68750000,4.25000000,3.68750000,0.02474004,-0.04062254,0.10613783,356.87500000,1427.50000000,356.45353015,-0.12454336,-0.01281110,0.03986140,0.02276205,0.00649075,0.02276205,0.02356758,0.00927242,0.00649075,0.00927242,0.00770447
0,27958,13,9.68750000,0.56000000,0.00000000,-0.69000000,1.87500000,-17.31250000,-1.93750000,-0.08292495,0.18280143,-0.05894849,356.93750000,1427.75000000,356.54734462,-0.07335581,-0.00731398,0.03986140,0.02276205,0.00649075,0.02276205,0.02356758,0.00927242,0.00649075,0.00927242,0.00770447
0,28340,13,9.68750000,0.26000000,0.06000000,-0.77000000,1.87500000,-2.75000000,-0.87500000,-0.06078109,0.06185010,-0.04917465,356.68750000,1426.75000000,356.55080657,-0.07308032,-0.01517597,0.03986140,0.02276205,0.00649075,0.02276205,0.02356758,0.00927242,0.00649075,0.00927242,0.00770447
0,28724,13,9.68750000,0.05000000,-0.38000000,-0.29000000,-9.18750000,-12.81250000,2.62500000,0.10980303,0.21334468,-0.09773844,356.62500000,1426.50000000,356.54087205,-0.07424359,-0.01712130,0.03986140,0.02276205,0.00649075,0.02276205,0.02356758,0.00927242,0.00649075,0.00927242,0.00770447
0,29108,13,9.68750000,-0.31000000,-1.29000000,-0.24000000,17.31250000,2.50000000,-32.75000000,-0.25488353,-0.06047565,-0.55206949,356.81250000,1427.25000000,356.59371262,-0.04564298,-0.01139060,0.03986140,0.02276205,0.00649075,0.02276205,0.02356758,0.00927242,0.00649075,0.00927242,0.00770447
0,29492,13,9.68750000,-0.20000000,-0.60000000,-0.74000000,-6.62500000,-4.75000000,-17.18750000,0.15668693,0.00733038,-0.39797869,356.81250000,1427.25000000,356.63288967,-0.03446013,-0.01601387,0.03986140,0.02276205,0.00649075,0.02276205,0.02356758,0.00927242,0.00649075,0.00927242,0.00770447
0,29876,13,9.68750000,-0.99000000,-1.08000000,0.05000000,6.31250000,-3.56250000,-6.81250000,-0.11804971,-0.02718350,-0.25060746,357.00000000,1428.00000000,356.73591039,0.01544883,-0.00220481,0.03986140,0.02276205,0.00649075,0.02276205,0.02356758,0.00927242,0.00649075,0.00927242,0.00770447
0,30260,13,9.68750000,-0.11000000,-0.05000000,-0.43000000,3.31250000,-2.00000000,1.75000000,-0.09330966,0.06078109,-0.09621127,356.37500000,1425.50000000,356.62038843,-0.04889426,-0.02184432,0.03986140,0.02276205,0.00649075,0.02276205,0.02356758,0.00927242,0.00649075,0.00927242,0.00770447
0,30644,13,9.68750000,-0.43000000,-0.95000000,-0.06000000,-1.68750000,16.12500000,-2.31250000,0.02306016,-0.26694810,-0.17058413,356.62500000,1426.50000000,356.60101227,-0.05741991,-0.02225108,0.03986140,0.02276205,0.00649075,0.02276205,0.02356758,0.00927242,0.00649075,0.00927242,0.00770447
0,31030,13,9.68750000,0.11000000,-0.27000000,0.03000000,-2.56250000,-7.43750000,4.37500000,-0.01847867,0.17150041,-0.05971208,356.43750000,1425.75000000,356.52660028,-0.08894597,-0.02691955,0.03986140,0.02276205,0.00649075,0.02276205,0.02356758,0.00927242,0.00649075,0.00927242,0.00770447
0,31412,13,9.68750000,0.00000000,-0.31000000,-0.01000000,-7.68750000,2.37500000,1.87500000,0.07101308,-0.05436701,-0.05161811,356.75000000,1427.00000000,356.56176765,-0.06565879,-0.01880249,0.03986140,0.02276205,0.00649075,0.02276205,0.02356758,0.00927242,0.00649075,0.00927242,0.00770447
0,31796,13,9.68750000,0.00000000,-0.03000000,-0.17000000,-1.62500000,-5.31250000,2.93750000,-0.05436701,0.06276640,-0.10262536,356.93750000,1427.75000000,356.65188770,-0.02058389,-0.00829491,0.03986140,0.02276205,0.00649075,0.02276205,0.02356758,0.00927242,0.00649075,0.00927242,0.00770447
0,32180,13,9.68750000,-0.19000000,-0.81000000,1.06000000,7.87500000,-8.12500000,-0.37500000,-0.19120082,0.19364429,-0.19486600,357.06250000,1428.25000000,356.79087098,0.06202814,0.02381683,0.03986140,0.02276205,0.00649075,0.02276205,0.02356758,0.00927242,0.00649075,0.00927242,0.00770447
0,32564,13,9.68750000,-0.31000000,-0.56000000,-1.20000000,10.12500000,9.37500000,-28.31250000,0.09147707,-0.24007004,-0.40622538,357.06250000,1428.25000000,356.88228293,0.08295065,0.01253628,0.03986140,0.02276205,0.00649075,0.02276205,0.02356758,0.00927242,0.00649075,0.00927242,0.00770447
0,32948,13,9.68750000,0.81000000,0.44000000,-1.24000000,-32.75000000,16.12500000,19.87500000,0.46654832,-0.39690971,0.52519137,356.93750000,1427.75000000,356.91185810,0.06679426,-0.00671450,0.03986140,0.02276205,0.00649075,0.02276205,0.02356758,0.00927242,0.00649075,0.00927242,0.00770447
0,33332,13,9.68750000,-1.21000000,-0.80000000,1.88000000,-12.62500000,0.43750000,4.31250000,0.11972959,0.26083946,-0.28405231,356.81250000,1427.25000000,356.93612213,0.09336580,0.02143205,0.03986140,0.02276205,0.00649075,0.02276205,0.02356758,0.00927242,0.00649075,0.00927242,0.00770447
0,33716,13,9.75000000,-0.13000000,0.20000000,-1.76000000,-12.00000000,-5.62500000,-12.00000000,0.24205534,-0.11270463,-0.24678956,356.93750000,1427.75000000,356.94464096,0.06031067,-0.00856811,0.03986140,0.02276205,0.00649075,0.02276205,0.02356758,0.00927242,0.00649075,0.00927242,0.00770447
0,34100,13,9.75000000,-0.03000000,-0.04000000,-0.53000000,26.56250000,-11.37500000,-21.68750000,-0.39522982,0.05742133,-0.36331210,356.81250000,1427.25000000,356.91665674,0.02531263,-0.02196635,0.03986140,0.02276205,0.00649075,0.02276205,0.02356758,0.00927242,0.00649075,0.00927242,0.00770447
0,34484,13,9.75000000,0.43000000,-0.52000000,-0.23000000,3.00000000,0.93750000,2.75000000,-0.08109237,-0.19654590,-0.16814065,356.81250000,1427.25000000,356.88833610,-0.00334986,-0.02908587,0.03986140,0.02276205,0.00649075,0.02276205,0.02356758,0.00927242,0.00649075,0.00927242,0.00770447
0,34868,13,9.75000000,0.07000000,-1.86000000,-1.20000000,21.18750000,-6.18750000,-6.75000000,-0.09865474,0.07086036,-0.21273382,356.87500000,1427.50000000,356.86163503,-0.04363880,-0.04919620,0.03986140,0.02276205,0.00649075,0.02276205,0.02356758,0.00927242,0.00649075,0.00927242,0.00770447
0,35252,13,9.75000000,0.08000000,0.18000000,-0.81000000,-24.56250000,12.00000000,7.00000000,0.39461896,-0.20998493,0.16600263,356.62500000,1426.50000000,356.75410907,-0.11518825,-0.07005372,0.03986140,0.02276205,0.00649075,0.02276205,0.02356758,0.00927242,0.00649075,0.00927242,0.00770447
0,35636,13,9.75000000,0.15000000,-0.10000000,0.16000000,-15.75000000,5.81250000,-0.56250000,0.16111571,-0.08429940,0.00167988,357.00000000,1428.00000000,356.78674373,-0.10004155,-0.05754373,0.03986140,0.02276205,0.00649075,0.02276205,0.02356758,0.00927242,0.00649075,0.00927242,0.00770447
0,36020,13,9.75000000,0.19000000,-0.39000000,0.28000000,0.06250000,-7.56250000,9.56250000,-0.12079860,0.12202033,-0.00167988,356.81250000,1427.25000000,356.75810989,-0.11029456,-0.05083685,0.03986140,0.02276205,0.00649075,0.02276205,0.02356758,0.00927242,0.00649075,0.00927242,0.00770447
0,36404,13,9.75000000,-0.11000000,-0.26000000,0.30000000,-0.68750000,-1.50000000,2.75000000,-0.08949175,-0.00839940,-0.04276057,356.62500000,1426.50000000,356.67597231,-0.14125714,-0.04936457,0.03986140,0.02276205,0.00649075,0.02276205,0.02356758,0.00927242,0.00649075,0.00927242,0.00770447
0,36788,13,9.75000000,-0.14000000,-0.93000000,-0.29000000,10.12500000,-4.06250000,-8.75000000,-0.17989981,0.06200282,-0.25793785,356.50000000,1426.00000000,356.55892990,-0.19177312,-0.05925059,0.03986140,0.02276205,0.00649075,0.02276205,0.02356758,0.00927242,0.00649075,0.00927242,0.00770447
0,37172,13,9.75000000,-0.15000000,0.15000000,0.57000000,-15.75000000,3.43750000,-4.25000000,0.15286903,-0.06734789,-0.22189680,356.75000000,1427.00000000,356.55232093,-0.17136236,-0.04181082,0.03986140,0.02276205,0.00649075,0.02276205,0.02356758,0.00927242,0.00649075,0.00927242,0.00770447
0,37556,13,9.75000000,0.07000000,-0.48000000,-0.49000000,-7.18750000,1.75000000,8.25000000,0.09330966,-0.01679879,0.06322455,356.93750000,1427.75000000,356.59864672,-0.14055805,-0.03580147,0.03986140,0.02276205,0.00649075,0.02276205,0.02356758,0.00927242,0.00649075,0.00927242,0.00770447
0,37940,13,9.75000000,0.06000000,-0.69000000,0.06000000,-7.37500000,12.56250000,-4.93750000,0.11224649,-0.20219639,-0.26450464,356.81250000,1427.25000000,356.61176873,-0.12023716,-0.02661011,0.03986140,0.02276205,0.00649075,0.02276205,0.02356758,0.00927242,0.00649075,0.00927242,0.00770447
0,38324,13,9.75000000,-0.16000000,-0.41000000,0.08000000,-8.12500000,-4.81250000,-5.00000000,0.08200866,0.10247265,-0.18127427,356.31250000,1425.25000000,356.47100951,-0.17230473,-0.03494711,0.03986140,0.02276205,0.00649075,0.02276205,0.02356758,0.00927242,0.00649075,0.00927242,0.00770447
0,38708,13,9.81250000,-0.37000000,-0.79000000,-0.22000000,0.56250000,-8.25000000,-5.50000000,-0.05558873,0.10690141,-0.23243423,356.81250000,1427.25000000,356.50793187,-0.13924931,-0.02602429,0.03986140,0.02276205,0.00649075,0.02276205,0.02356758,0.00927242,0.00649075,0.00927242,0.00770447
0,39092,13,9.75000000,-0.19000000,-0.47000000,-0.21000000,-1.06250000,1.68750000,0.81250000,0.01924226,-0.06490443,-0.03420845,356.37500000,1425.50000000,356.40789995,-0.17316835,-0.03347937,0.03986140,0.02276205,0.00649075,0.02276205,0.02356758,0.00927242,0.00649075,0.00927242,0.00770447
0,39476,13,9.81250000,0.06000000,-0.32000000,-0.11000000,-2.00000000,3.81250000,-0.93750000,0.00061087,-0.06123924,-0.06261369,356.62500000,1426.50000000,356.40698435,-0.15548811,-0.02701896,0.03986140,0.02276205,0.00649075,0.02276205,0.02356758,0.00927242,0.00649075,0.00927242,0.00770447
0,39860,13,9.81250000,-0.04000000,0.17000000,-0.07000000,1.12500000,-3.56250000,4.43750000,-0.05268713,0.05726862,-0.08949175,356.62500000,1426.50000000,356.41411057,-0.13443067,-0.01999105,0.03986140,0.02276205,0.00649075,0.02276205,0.02356758,0.00927242,0.00649075,0.00927242,0.00770447
0,40244,13,9.75000000,-0.04000000,0.17000000,0.16000000,-3.43750000,-1.12500000,-5.75000000,-0.01954769,-0.01695151,-0.16539176,356.75000000,1427.00000000,356.47072690,-0.08801944,-0.00519126,0.03986140,0.02276205,0.00649075,0.02276205,0.02356758,0.00927242,0.00649075,0.00927242,0.00770447
0,40628,13,9.75000000,0.14000000,0.14000000,0.17000000,-2.50000000,0.56250000,1.50000000,-0.07101308,0.01954769,-0.08918633,356.62500000,1426.50000000,356.48851770,-0.06303099,0.00319963,0.03986140,0.02276205,0.00649075,0.02276205,0.02356758,0.00927242,0.00649075,0.00927242,0.00770447
0,41012,13,9.81250000,-0.10000000,-0.17000000,-0.01000000,4.50000000,-1.12500000,4.43750000,-0.11652254,0.01939497,-0.06246097,356.62500000,1426.50000000,356.50773350,-0.04186639,0.00777681,0.03986140,0.02276205,0.00649075,0.02276205,0.02356758,0.00927242,0.00649075,0.00927242,0.00770447
0,41396,13,9.81250000,0.08000000,0.04000000,0.17000000,-0.12500000,-1.31250000,-0.75000000,-0.08796459,0.02367103,-0.14278974,356.43750000,1425.75000000,356.47275420,-0.04555299,0.00814437,0.03986140,0.02276205,0.00649075,0.02276205,0.02356758,0.00927242,0.00649075,0.00927242,0.00770447
0,41780,13,9.81250000,0.06000000,-0.23000000,0.09000000,3.68750000,-1.43750000,4.50000000,-0.09330966,0.02458733,-0.09392053,356.43750000,1425.75000000,356.44616191,-0.04577787,0.00837361,0.03986140,0.02276205,0.00649075,0.02276205,0.02356758,0.00927242,0.00649075,0.00927242,0.00770447
0,42164,13,9.81250000,0.14000000,0.13000000,-0.10000000,3.81250000,-1.06250000,-0.62500000,-0.05314528,-0.05681047,-0.09254609,356.43750000,1425.75000000,356.42481876,-0.04639296,0.00632602,0.03986140,0.02276205,0.00649075,0.02276205,0.02356758,0.00927242,0.00649075,0.00927242,0.00770447
0,42548,13,9.81250000,-0.02000000,0.16000000,-0.35000000,-6.62500000,-4.56250000,3.18750000,0.11713341,-0.02061670,0.00519235,356.31250000,1425.25000000,356.36622963,-0.06893559,-0.00345428,0.03986140,0.02276205,0.00649075,0.02276205,0.02356758,0.00927242,0.00649075,0.00927242,0.00770447
0,42932,13,9.81250000,0.05000000,-0.04000000,-0.26000000,3.75000000,-0.06250000,-5.00000000,-0.13362677,0.02092213,-0.20998493,356.50000000,1426.00000000,356.37788654,-0.05636729,-0.00304650,0.03986140,0.02276205,0.00649075,0.02276205,0.02356758,0.00927242,0.00649075,0.00927242,0.00770447
0,43316,13,9.81250000,-0.01000000,0.23000000,0.03000000,-0.62500000,4.12500000,4.06250000,-0.05604688,-0.06520987,-0.03802636,356.50000000,1426.00000000,356.39539237,-0.03863924,0.00180175,0.03986140,0.02276205,0.00649075,0.02276205,0.02356758,0.00927242,0.00649075,0.00927242,0.00770447
0,43702,13,9.81250000,-0.21000000,0.33000000,-0.23000000,3.75000000,2.93750000,2.00000000,-0.11117747,-0.06078109,-0.04718934,356.31250000,1425.25000000,356.35077645,-0.05564339,-0.00488621,0.03986140,0.02276205,0.00649075,0.02276205,0.02356758,0.00927242,0.00649075,0.00927242,0.00770447
0,44086,13,9.81250000,0.37000000,-0.07000000,0.12000000,3.00000000,1.18750000,-2.25000000,-0.12278391,-0.01435533,-0.20036380,356.43750000,1425.75000000,356.35871666,-0.04173212,0.00028334,0.03986140,0.02276205,0.00649075,0.02276205,0.02356758,0.00927242,0.00649075,0.00927242,0.00770447
0,44470,14,9.81250000,0.01000000,0.34000000,-0.06000000,-4.87500000,-2.75000000,4.06250000,0.05955936,0.01175916,-0.01786781,356.37500000,1425.50000000,356.34701009,-0.04060971,-0.00010371,0.03986140,0.02276205,0.00649075,0.02276205,0.02356758,0.00927242,0.00649075,0.00927242,0.00770447
0,45640,14,9.87500000,-0.02000000,-0.05000000,-0.49000000,1.00000000,2.43750000,0.87500000,-0.00916298,-0.08155051,-0.05818491,356.56250000,1426.25000000,356.38011130,-0.02056497,-0.00084104,0.07751809,0.04469223,0.01291929,0.04469223,0.03646151,0.01312669,0.01291929,0.01312669,0.00770447
0,47180,14,9.81250000,0.45000000,0.09000000,0.18000000,1.12500000,4.50000000,7.06250000,-0.10445796,-0.04856379,-0.00946841,356.56250000,1426.25000000,356.50408172,0.03925921,0.01130569,0.24094960,0.11549820,0.02772126,0.11549820,0.06619941,0.01803278,0.02772126,0.01803278,0.00687356
0,47564,14,9.75000000,-0.06000000,0.55000000,0.03000000,0.00000000,0.50000000,2.62500000,-0.04566218,-0.02611449,-0.02260201,355.62500000,1422.50000000,355.88650118,-0.20885256,-0.03892193,0.08610121,0.03840810,0.00856984,0.03840810,0.02790110,0.00821742,0.00856984,0.00821742,0.00497112
0,47948,14,9.81250000,-0.59000000,0.11000000,-0.23000000,-0.37500000,2.37500000,-13.37500000,0.02031127,-0.05833763,-0.24923301,355.37500000,1421.50000000,355.54828428,-0.32147739,-0.05815627,0.05898274,0.02606352,0.00575278,0.02606352,0.02223792,0.00688509,0.00575278,0.00688509,0.00516934
0,48332,14,9.87500000,0.27000000,0.29000000,-0.26000000,-6.81250000,0.87500000,0.12500000,0.08582657,-0.03390302,-0.05925393,355.68750000,1422.75000000,355.47514369,-0.32627033,-0.05617192,0.04826769,0.02190427,0.00496139,0.02190427,0.02062941,0.00670863,0.00496139,0.00670863,0.00559296
0,48716,14,9.87500000,0.02000000,-0.03000000,0.05000000,2.93750000,-5.18750000,-3.93750000,-0.10293079,0.04123340,-0.16997325,355.50000000,1422.00000000,355.35690378,-0.34246376,-0.05369993,0.04306114,0.02038276,0.00481503,0.02038276,0.02031634,0.00692749,0.00481503,0.00692749,0.00604263
0,49100,14,9.87500000,-0.47000000,0.66000000,0.23000000,8.75000000,-1.62500000,-13.62500000,-0.17974709,0.02061670,-0.26755896,355.37500000,1421.50000000,355.23204981,-0.35535875,-0.04883740,0.04040959,0.01999734,0.00493977,0.01999734,0.02055007,0.00730262,0.00493977,0.00730262,0.00645684
0,49486,14,9.93750000,0.14000000,0.03000000,-0.02000000,-3.87500000,0.06250000,6.37500000,0.08246680,-0.05910121,-0.05222898,355.50000000,1422.00000000,355.17877378,-0.33834968,-0.04074222,0.03912718,0.02014844,0.00518010,0.02014844,0.02101809,0.00771886,0.00518010,0.00771886,0.00681004
0,49868,14,9.93750000,-0.03000000,0.30000000,-0.13000000,0.68750000,-1.75000000,0.62500000,-0.10842858,0.05436701,-0.04428773,355.75000000,1423.00000000,355.22383825,-0.27973197,-0.02555599,0.03861540,0.02053790,0.00545403,0.02053790,0.02155512,0.00811212,0.00545403,0.00811212,0.00709340
0,50252,14,9.93750000,-0.23000000,0.11000000,0.01000000,1.62500000,2.12500000,-7.43750000,-0.08643743,-0.08689559,-0.33918291,355.50000000,1422.00000000,355.20137373,-0.25118711,-0.01640652,0.03852915,0.02100071,0.00571511,0.02100071,0.02206743,0.00844888,0.00571511,0.00844888,0.00730843
0,50636,14,9.93750000,0.14000000,-0.10000000,-0.06000000,-3.93750000,4.93750000,7.18750000,0.06750061,-0.11392637,0.00366519,355.50000000,1422.00000000,355.19616671,-0.21692327,-0.00750565,0.03865795,0.02144545,0.00593927,0.02144545,0.02250647,0.00871661,0.00593927,0.00871661,0.00746307
0,51020,14,9.93750000,-0.02000000,0.11000000,-0.02000000,-1.00000000,1.56250000,6.37500000,-0.02886338,-0.00549779,0.03970624,355.43750000,1421.75000000,355.18760575,-0.18591459,0.00033845,0.03887414,0.02182695,0.00611760,0.02182695,0.02285447,0.00891662,0.00611760,0.00891662,0.00756849
0,51404,14,9.93750000,0.06000000,0.24000000,-0.15000000,-0.31250000,1.06250000,-3.43750000,-0.04031710,-0.03955352,-0.11667526,355.25000000,1421.00000000,355.13385889,-0.18023850,0.00017303,0.03910460,0.02212957,0.00625091,0.02212957,0.02311324,0.00905793,0.00625091,0.00905793,0.00763642
0,51788,14,10.00000000,0.31000000,0.17000000,-0.84000000,-3.00000000,1.75000000,5.93750000,0.15500706,-0.00198531,0.04795292,355.31250000,1421.25000000,355.10764728,-0.17350600,-0.00762507,0.03931198,0.02235524,0.00634524,0.02235524,0.02329512,0.00915264,0.00634524,0.00915264,0.00767752
0,52172,14,10.00000000,-0.02000000,0.14000000,-0.16000000,2.56250000,7.18750000,-4.37500000,-0.07437284,-0.10629056,-0.13103059,355.50000000,1422.00000000,355.16161833,-0.12247202,0.00336787,0.03948132,0.02251476,0.00640864,0.02251476,0.02341634,0.00921279,0.00640864,0.00921279,0.00770048
0,52556,14,9.93750000,0.14000000,0.34000000,-0.02000000,0.18750000,4.50000000,-1.81250000,-0.07819075,-0.08445211,-0.15485434,355.68750000,1422.75000000,355.28027422,-0.04429167,0.02111204,0.03961046,0.02262199,0.00644907,0.02262199,0.02349286,0.00924876,0.00644907,0.00924876,0.00771187
0,52940,14,9.93750000,-0.22000000,0.12000000,-0.01000000,1.31250000,-3.12500000,-1.37500000,-0.05650503,0.00992656,-0.10980303,355.50000000,1422.00000000,355.33370668,-0.00449962,0.02819380,0.03970373,0.02269048,0.00647340,0.02269048,0.02353832,0.00926870,0.00647340,0.00926870,0.00771632
0,53324,14,9.93750000,0.15000000,0.01000000,0.07000000,1.25000000,0.87500000,1.37500000,-0.06352998,-0.02519819,-0.08170322,355.37500000,1421.50000000,355.34776039,0.01333086,0.03032434,0.03976792,0.02273180,0.00648701,0.02273180,0.02356331,0.00927855,0.00648701,0.00927855,0.00771694
0,53708,14,10.00000000,-0.11000000,-0.09000000,0.10000000,0.75000000,-4.43750000,2.25000000,-0.05360342,0.06948592,-0.08384126,355.43750000,1421.75000000,355.38454725,0.03981440,0.03456742,0.03981008,0.02275500,0.00649384,0.02275500,0.02357554,0.00928243,0.00649384,0.00928243,0.00771568
0,54092,14,10.00000000,0.07000000,0.10000000,0.00000000,-0.68750000,1.68750000,2.68750000,-0.04474588,-0.05115997,-0.03940080,355.56250000,1422.25000000,355.45795864,0.07858721,0.04006091,0.03983644,0.02276674,0.00649664,0.02276674,0.02358026,0.00928301,0.00649664,0.00928301,0.00771369
0,54476,14,10.00000000,0.11000000,0.09000000,-0.03000000,-2.18750000,0.75000000,-3.18750000,-0.00824668,-0.00824668,-0.15913039,355.50000000,1422.00000000,355.50297058,0.09846021,0.04021308,0.03985198,0.02277162,0.00649721,0.02277162,0.02358091,0.00928199,0.00649721,0.00928199,0.00771160
0,54860,14,10.00000000,-0.07000000,0.14000000,-0.05000000,2.06250000,0.43750000,0.18750000,-0.08109237,-0.00931569,-0.08200866,355.37500000,1421.50000000,355.50141764,0.09268387,0.03413353,0.03986047,0.02277268,0.00649666,0.02277268,0.02357958,0.00928033,0.00649666,0.00928033,0.00770973
0,55244,14,10.00000000,0.00000000,0.05000000,0.12000000,1.31250000,-3.62500000,-0.87500000,-0.08613200,0.06795876,-0.06704246,355.37500000,1421.50000000,355.50058208,0.08891963,0.03107476,0.03986457,0.02277184,0.00649567,0.02277184,0.02357750,0.00927858,0.00649567,0.00927858,0.00770819
0,55628,14,10.00000000,0.00000000,0.23000000,0.41000000,5.18750000,1.87500000,0.75000000,-0.16111571,-0.04184427,-0.06551529,355.37500000,1421.50000000,355.50313307,0.09093294,0.03297241,0.03986609,0.02277023,0.00649459,0.02277023,0.02357532,0.00927699,0.00649459,0.00927699,0.00770700
0,56012,14,10.00000000,-0.11000000,0.15000000,0.12000000,-5.56250000,5.31250000,-1.56250000,0.02290745,-0.00778853,-0.11514810,355.50000000,1422.00000000,355.54059915,0.10505481,0.03418645,0.03986623,0.02276846,0.00649361,0.02276846,0.02357336,0.00927568,0.00649361,0.00927568,0.00770612
0,56396,14,10.00000000,0.22000000,0.13000000,0.19000000,-0.81250000,-2.18750000,0.68750000,-0.05543602,0.06398813,-0.17348573,355.50000000,1422.00000000,355.57279183,0.11567816,0.03524233,0.03986569,0.02276683,0.00649279,0.02276683,0.02357173,0.00927466,0.00649279,0.00927466,0.00770549
0,56780,14,10.00000000,0.03000000,-0.15000000,-0.19000000,-2.50000000,1.12500000,-0.68750000,0.00335976,-0.05803220,-0.15302174,355.37500000,1421.50000000,355.55311964,0.09451191,0.02446744,0.03986491,0.02276548,0.00649215,0.02276548,0.02357046,0.00927389,0.00649215,0.00927389,0.00770507
0,57164,14,10.06250000,-0.13000000,-0.05000000,0.09000000,-2.50000000,2.12500000,3.18750000,0.00565050,-0.05146540,-0.05772677,355.68750000,1422.75000000,355.63452375,0.12530092,0.03005349,0.03986410,0.02276442,0.00649167,0.02276442,0.02356950,0.00927334,0.00649167,0.00927334,0.00770479
0,57548,14,10.00000000,-0.09000000,-0.10000000,-0.14000000,-1.06250000,1.43750000,2.06250000,0.00702495,-0.07483099,-0.04825836,355.68750000,1422.75000000,355.69844613,0.14065837,0.02883229,0.03986339,0.02276362,0.00649133,0.02276362,0.02356880,0.00927296,0.00649133,0.00927296,0.00770461
0,57932,14,10.00000000,-0.01000000,-0.14000000,-0.22000000,-0.75000000,2.93750000,0.31250000,-0.00717767,-0.06291912,-0.08491027,355.31250000,1421.25000000,355.62786840,0.08858391,0.01114179,0.03986281,0.02276305,0.00649109,0.02276305,0.02356832,0.00927271,0.00649109,0.00927271,0.00770451
0,58316,14,10.06250000,-0.02000000,0.20000000,0.11000000,-4.31250000,-4.12500000,-3.81250000,0.01649336,0.08399397,-0.20097467,355.50000000,1422.00000000,355.62355226,0.07615294,0.00826001,0.03986236,0.02276265,0.00649094,0.02276265,0.02356799,0.00927256,0.00649094,0.00927256,0.00770446
0,58700,14,10.06250000,-0.13000000,0.16000000,-0.13000000,-1.43750000,-5.18750000,1.62500000,0.00152716,0.07009679,-0.04993823,355.62500000,1422.50000000,355.65137015,0.07629974,0.00587234,0.03986203,0.02276239,0.00649084,0.02276239,0.02356778,0.00927246,0.00649084,0.00927246,0.00770443
0,59089,14,10.06250000,-0.27000000,0.36000000,0.29000000,1.25000000,-6.25000000,-1.75000000,-0.07360926,0.07162395,-0.15424347,355.87500000,1423.50000000,355.75630649,0.11832871,0.01822992,0.03986179,0.02276222,0.00649078,0.02276222,0.02356766,0.00927241,0.00649078,0.00927241,0.00770443
0,59468,14,10.06250000,-0.07000000,-0.20000000,-0.25000000,4.37500000,-1.12500000,-4.93750000,-0.10812315,-0.01130101,-0.22250766,355.56250000,1422.25000000,355.73697531,0.09027805,0.00686875,0.03986163,0.02276211,0.00649075,0.02276211,0.02356759,0.00927239,0.00649075,0.00927239,0.00770443
0,59852,14,10.06250000,-0.66000000,0.13000000,0.46000000,5.93750000,-6.50000000,-3.87500000,-0.17195857,0.12034045,-0.11163563,355.25000000,1421.00000000,355.62506912,0.03117016,-0.00244068,0.03986152,0.02276205,0.00649073,0.02276205,0.02356755,0.00927238,0.00649073,0.00927238,0.00770443
0,60236,14,10.06250000,0.11000000,0.35000000,-0.21000000,-1.00000000,1.31250000,-3.43750000,-0.03863723,-0.01679879,-0.14401148,355.43750000,1421.75000000,355.57399463,-0.00241947,-0.01243500,0.03986146,0.02276203,0.00649073,0.02276203,0.02356754,0.00927239,0.00649073,0.00927239,0.00770444
0,60620,14,10.06250000,0.20000000,-0.36000000,-0.09000000,10.43750000,0.87500000,-4.00000000,-0.21700987,-0.02474004,-0.20631973,355.81250000,1423.25000000,355.64642225,0.02643066,-0.00551613,0.03986142,0.02276201,0.00649073,0.02276201,0.02356754,0.00927239,0.00649073,0.00927239,0.00770445
0,61004,14,10.00000000,-0.07000000,0.36000000,-0.07000000,1.93750000,-5.75000000,2.68750000,-0.09666943,0.08674286,-0.07880161,355.50000000,1422.00000000,355.60867976,0.00110209,-0.01168377,0.03986140,0.02276201,0.00649073,0.02276201,0.02356755,0.00927240,0.00649073,0.00927240,0.00770445
0,61388,14,10.00000000,0.18000000,-0.11000000,-0.06000000,5.43750000,3.25000000,0.62500000,-0.11575896,-0.06963864,-0.09941832,355.56250000,1422.25000000,355.59284224,-0.01132553,-0.01408757,0.03986139,0.02276202,0.00649073,0.02276202,0.02356755,0.00927240,0.00649073,0.00927240,0.00770446
0,61772,14,10.00000000,0.08000000,-0.17000000,0.28000000,0.62500000,1.31250000,1.06250000,-0.12538010,-0.01466077,-0.08811731,355.37500000,1421.50000000,355.52332557,-0.04217960,-0.01663877,0.03986139,0.02276202,0.00649074,0.02276202,0.02356756,0.00927241,0.00649074,0.00927241,0.00770446
0,62159,14,10.00000000,-0.15000000,0.01000000,-0.32000000,2.06250000,7.25000000,-0.68750000,0.00015272,-0.06551529,0.04352415,355.37500000,1421.50000000,355.45413790,-0.07758317,-0.02677694,0.03986139,0.02276203,0.00649074,0.02276203,0.02356757,0.00927241,0.00649074,0.00927241,0.00770446
0,62540,14,10.00000000,0.33000000,-0.17000000,0.01000000,3.06250000,-4.37500000,8.56250000,-0.10186177,0.09987646,0.03894266,355.68750000,1422.75000000,355.49712292,-0.05230161,-0.01800071,0.03986139,0.02276203,0.00649075,0.02276203,0.02356757,0.00927242,0.00649075,0.00927242,0.00770447
0,62924,14,10.00000000,0.08000000,-0.26000000,-0.51000000,2.75000000,4.81250000,-9.37500000,0.01710423,-0.12858713,-0.28573221,355.37500000,1421.50000000,355.42920065,-0.08872247,-0.03038727,0.03986139,0.02276204,0.00649075,0.02276204,0.02356758,0.00927242,0.00649075,0.00927242,0.00770447
0,63308,14,10.00000000,-0.14000000,-0.09000000,-0.04000000,0.93750000,-0.62500000,-8.43750000,-0.08460483,0.04948008,-0.18325958,355.43750000,1421.75000000,355.39566290,-0.09929202,-0.03012685,0.03986139,0.02276204,0.00649075,0.02276204,0.02356758,0.00927242,0.00649075,0.00927242,0.00770447
0,63692,14,10.00000000,-0.01000000,0.35000000,0.26000000,0.68750000,2.25000000,4.25000000,-0.12935072,-0.05635232,-0.00106901,355.68750000,1422.75000000,355.45277906,-0.06071834,-0.01504977,0.03986140,0.02276204,0.00649075,0.02276204,0.02356758,0.00927242,0.00649075,0.00927242,0.00770447
0,64076,14,10.00000000,0.01000000,0.77000000,1.51000000,-6.50000000,10.00000000,22.81250000,0.01160644,-0.15180002,0.28664851,355.62500000,1422.50000000,355.50794753,-0.00543328,0.01657757,0.03986140,0.02276205,0.00649075,0.02276205,0.02356758,0.00927242,0.00649075,0.00927242,0.00770447
0,64460,14,10.00000000,-0.05000000,-0.17000000,0.29000000,6.12500000,-4.06250000,-6.12500000,-0.15683965,0.06719518,-0.24174991,355.56250000,1422.25000000,355.52881130,0.01533590,0.02305531,0.03986140,0.02276205,0.00649075,0.02276205,0.02356758,0.00927242,0.00649075,0.00927242,0.00770447
0,64844,14,10.00000000,0.29000000,-0.44000000,-1.13000000,4.56250000,-3.93750000,-4.81250000,-0.04520402,-0.10369437,-0.29535335,355.56250000,1422.25000000,355.52819431,0.00230600,0.00483632,0.03986140,0.02276205,0.00649075,0.02276205,0.02356758,0.00927242,0.00649075,0.00927242,0.00770447
0,65230,14,10.00000000,0.04000000,0.90000000,-0.65000000,-2.12500000,-10.18750000,7.62500000,-0.00855211,0.16157384,0.00824668,356.06250000,1424.25000000,355.68792123,0.06820629,0.01224866,0.03986140,0.02276205,0.00649075,0.02276205,0.02356758,0.00927242,0.00649075,0.00927242,0.00770447
0,65612,14,10.00000000,0.63000000,0.14000000,-0.28000000,-25.56250000,-45.06250000,-14.12500000,0.36468655,0.67118818,-0.46456301,355.93750000,1423.75000000,355.78905454,0.10311188,0.01583706,0.03986140,0.02276205,0.00649075,0.02276205,0.02356758,0.00927242,0.00649075,0.00927242,0.00770447
0,65996,14,9.93750000,0.38000000,1.52000000,-1.41000000,-39.75000000,-23.43750000,-44.81250000,0.60964352,0.25060746,-0.49464810,355.62500000,1422.50000000,355.75429844,0.05164565,-0.01390837,0.03986140,0.02276205,0.00649075,0.02276205,0.02356758,0.00927242,0.00649075,0.00927242,0.00770447
0,66380,14,9.93750000,0.53000000,-0.02000000,-0.38000000,6.00000000,-21.37500000,21.62500000,0.01954769,0.06108652,0.43508878,355.06250000,1420.25000000,355.54795691,-0.06482183,-0.04396764,0.03986140,0.02276205,0.00649075,0.02276205,0.02356758,0.00927242,0.00649075,0.00927242,0.00770447
0,66764,14,10.00000000,-1.12000000,-0.77000000,0.63000000,47.93750000,-54.37500000,-7.37500000,-0.85566944,0.87460631,-0.16691893,355.50000000,1422.00000000,355.51587299,-0.07301742,-0.03420684,0.03986140,0.02276205,0.00649075,0.02276205,0.02356758,0.00927242,0.00649075,0.00927242,0.00770447
0,67148,14,10.00000000,0.04000000,0.85000000,1.07000000,22.25000000,-16.75000000,-1.00000000,-0.54626626,0.33521229,-0.11346821,355.37500000,1421.50000000,355.45897035,-0.08127715,-0.02041238,0.03986140,0.02276205,0.00649075,0.02276205,0.02356758,0.00927242,0.00649075,0.00927242,0.00770447
0,67532,14,10.00000000,-0.64000000,0.50000000,1.11000000,36.12500000,-26.06250000,27.50000000,-0.76923203,0.48579058,0.34193182,355.87500000,1423.50000000,355.57667806,-0.00103353,0.01302171,0.03986140,0.02276205,0.00649075,0.02276205,0.02356758,0.00927242,0.00649075,0.00927242,0.00770447
0,67916,14,10.00000000,-0.74000000,0.51000000,-0.06000000,19.87500000,11.93750000,-12.00000000,-0.35399640,-0.27519479,-0.22357668,355.37500000,1421.50000000,355.51218268,-0.02769713,0.00484903,0.03986140,0.02276205,0.00649075,0.02276205,0.02356758,0.00927242,0.00649075,0.00927242,0.00770447
0,68300,14,10.00000000,-1.75000000,-0.06000000,-0.03000000,-21.18750000,-19.93750000,-12.62500000,0.02565634,-0.04337143,-0.06643160,355.00000000,1420.00000000,355.33924441,-0.10266234,-0.01333988,0.03986140,0.02276205,0.00649075,0.02276205,0.02356758,0.00927242,0.00649075,0.00927242,0.00770447
0,68684,14,10.00000000,-2.42000000,1.05000000,0.47000000,-25.31250000,-37.25000000,19.06250000,0.39125916,0.63178736,0.23686299,354.87500000,1419.50000000,355.16005145,-0.16539412,-0.02106361,0.03986140,0.02276205,0.00649075,0.02276205,0.02356758,0.00927242,0.00649075,0.00927242,0.00770447
0,69068,14,10.00000000,1.15000000,-0.09000000,0.91000000,50.93750000,-36.25000000,-35.06250000,-0.98624194,0.50396383,-0.62934393,354.25000000,1417.00000000,354.82254373,-0.28681022,-0.03653487,0.03986140,0.02276205,0.00649075,0.02276205,0.02356758,0.00927242,0.00649075,0.00927242,0.00770447
0,69452,14,10.06250000,-0.47000000,-1.01000000,-2.22000000,-64.25000000,82.50000000,-36.12500000,1.17545736,-1.72431982,-0.51725012,354.06250000,1416.25000000,354.43436879,-0.46428623,-0.09893516,0.03986140,0.02276205,0.00649075,0.02276205,0.02356758,0.00927242,0.00649075,0.00927242,0.00770447
0,69836,14,10.12500000,-0.93000000,-1.32000000,-1.36000000,1.43750000,31.31250000,-0.87500000,-0.23564127,-0.20540343,-0.34330627,355.37500000,1421.50000000,354.52756051,-0.39172577,-0.08698582,0.03986140,0.02276205,0.00649075,0.02276205,0.02356758,0.00927242,0.00649075,0.00927242,0.00770447
0,70220,14,10.12500000,0.62000000,-0.72000000,-2.59000000,82.93750000,-168.87500000,-117.25000000,-1.52227616,2.81089640,-2.13772297,355.00000000,1420.00000000,354.48077488,-0.41296728,-0.11212672,0.03986140,0.02276205,0.00649075,0.02276205,0.02356758,0.00927242,0.00649075,0.00927242,0.00770447
0,70604,14,10.12500000,-0.11000000,0.90000000,1.42000000,36.00000000,-107.75000000,-29.37500000,-0.28405231,1.58305728,-0.56673020,353.75000000,1415.00000000,354.10889570,-0.52849870,-0.11095227,0.03986140,0.02276205,0.00649075,0.02276205,0.02356758,0.00927242,0.00649075,0.00927242,0.00770447
0,70988,14,10.12500000,0.20000000,-1.03000000,1.54000000,27.87500000,83.75000000,97.25000000,-0.93447107,-1.30114305,0.92362827,354.18750000,1416.75000000,353.95129069,-0.52071645,-0.07972052,0.03986140,0.02276205,0.00649075,0.02276205,0.02356758,0.00927242,0.00649075,0.00927242,0.00770447
0,71372,14,10.12500000,0.13000000,1.46000000,2.99000000,9.68750000,36.62500000,26.37500000,-0.35689801,-0.49693885,0.33154711,352.68750000,1410.75000000,353.39701514,-0.66723982,-0.07093377,0.03986140,0.02276205,0.00649075,0.02276205,0.02356758,0.00927242,0.00649075,0.00927242,0.00770447
0,71756,14,10.12500000,-0.68000000,2.73000000,0.69000000,-11.43750000,57.12500000,22.93750000,0.23273966,-1.00029182,0.30253100,352.31250000,1409.25000000,352.80667129,-0.83750114,-0.09450335,0.03986140,0.02276205,0.00649075,0.02276205,0.02356758,0.00927242,0.00649075,0.00927242,0.00770447
0,72140,14,10.18750000,-0.93000000,-0.68000000,1.91000000,-47.18750000,29.06250000,-6.75000000,0.82130831,-0.24831672,-0.43661594,352.12500000,1408.50000000,352.29757306,-0.92804703,-0.08305733,0.03986140,0.02276205,0.00649075,0.02276205,0.02356758,0.00927242,0.00649075,0.00927242,0.00770447
0,72524,14,10.18750000,1.75000000,1.03000000,0.73000000,-67.25000000,-145.93750000,-32.68750000,0.65820730,1.93827534,-0.50014591,354.68750000,1418.75000000,352.70792392,-0.58614605,0.01435300,0.03986140,0.02276205,0.00649075,0.02276205,0.02356758,0.00927242,0.00649075,0.00927242,0.00770447
0,72908,14,10.18750000,1.65000000,2.65000000,-0.22000000,-43.00000000,-24.62500000,124.00000000,0.30787608,0.21120664,1.95354700,353.75000000,1415.00000000,352.81176948,-0.43149445,0.04721931,0.03986140,0.02276205,0.00649075,0.02276205,0.02356758,0.00927242,0.00649075,0.00927242,0.00770447
0,73292,14,10.18750000,-1.95000000,-0.25000000,-0.62000000,-9.62500000,-35.68750000,-5.56250000,0.21456641,0.52122074,-0.34330627,354.06250000,1416.25000000,353.03593013,-0.24342456,0.07977115,0.03986140,0.02276205,0.00649075,0.02276205,0.02356758,0.00927242,0.00649075,0.00927242,0.00770447
0,73676,14,10.18750000,-1.22000000,0.05000000,0.04000000,11.37500000,-15.56250000,-32.25000000,-0.21578816,0.71807212,-0.65102965,354.93750000,1419.75000000,353.55040973,0.06821564,0.14499139,0.03986140,0.02276205,0.00649075,0.02276205,0.02356758,0.00927242,0.00649075,0.00927242,0.00770447
0,74060,14,10.18750000,0.73000000,-0.13000000,-0.41000000,-14.06250000,-27.68750000,-50.37500000,0.37873647,0.25549439,-0.12339478,355.00000000,1420.00000000,354.03684990,0.32565504,0.18551335,0.03986140,0.02276205,0.00649075,0.02276205,0.02356758,0.00927242,0.00649075,0.00927242,0.00770447
0,74444,14,10.18750000,-2.04000000,-0.63000000,0.16000000,-12.81250000,-2.56250000,3.75000000,0.17837265,0.08170322,-0.01634065,355.37500000,1421.50000000,354.59766381,0.59430923,0.23068992,0.03986140,0.02276205,0.00649075,0.02276205,0.02356758,0.00927242,0.00649075,0.00927242,0.00770447
0,74828,14,10.25000000,-0.70000000,-0.66000000,-0.88000000,-36.68750000,11.37500000,0.68750000,0.55863625,-0.00901026,-0.11346821,355.00000000,1420.00000000,354.95011934,0.71607654,0.22499664,0.03986140,0.02276205,0.00649075,0.02276205,0.02356758,0.00927242,0.00649075,0.00927242,0.00770447
0,75212,14,10.25000000,-0.50000000,-0.95000000,1.41000000,-7.18750000,-14.87500000,-38.87500000,0.27397305,0.43218717,-0.47968191,354.87500000,1419.50000000,355.23481117,0.81820930,0.24120454,0.03986140,0.02276205,0.00649075,0.02276205,0.02356758,0.00927242,0.00649075,0.00927242,0.00770447
0,75596,14,10.25000000,2.02000000,0.93000000,-0.30000000,-43.68750000,-30.87500000,31.68750000,0.44990224,0.36407569,0.39293906,354.56250000,1418.25000000,355.34236163,0.79775948,0.20770328,0.03986140,0.02276205,0.00649075,0.02276205,0.02356758,0.00927242,0.00649075,0.00927242,0.00770447
0,75980,14,10.31250000,-0.88000000,-0.89000000,-0.60000000,-15.00000000,-48.68750000,-9.43750000,0.09621127,1.00609505,-0.23869559,354.62500000,1418.50000000,355.42107999,0.75166356,0.16820751,0.03986140,0.02276205,0.00649075,0.02276205,0.02356758,0.00927242,0.00649075,0.00927242,0.00770447
0,76364,14,10.31250000,-1.23000000,0.52000000,1.02000000,39.87500000,13.31250000,-21.31250000,-0.13942999,0.08597928,-0.33872476,354.81250000,1419.25000000,355.54086931,0.74525147,0.16038794,0.03986140,0.02276205,0.00649075,0.02276205,0.02356758,0.00927242,0.00649075,0.00927242,0.00770447
0,76748,14,10.31250000,-2.22000000,0.31000000,1.36000000,36.18750000,-3.25000000,-39.12500000,-0.10155635,0.05574145,-0.93141675,354.81250000,1419.25000000,355.62539092,0.72617285,0.15428987,0.03986140,0.02276205,0.00649075,0.02276205,0.02356758,0.00927242,0.00649075,0.00927242,0.00770447
0,77132,14,10.31250000,0.16000000,1.17000000,1.45000000,37.18750000,1.06250000,18.68750000,-1.16232383,0.06673703,0.32039881,355.00000000,1420.00000000,355.73637324,0.72228639,0.15338213,0.03986140,0.02276205,0.00649075,0.02276205,0.02356758,0.00927242,0.00649075,0.00927242,0.00770447
0,77516,14,10.31250000,-0.18000000,0.32000000,0.70000000,-17.87500000,-2.06250000,2.87500000,0.65897083,0.09392053,-0.00076358,355.43750000,1421.75000000,355.93697875,0.74908644,0.15115500,0.03986140,0.02276205,0.00649075,0.02276205,0.02356758,0.00927242,0.00649075,0.00927242,0.00770447
0,77903,14,10.31250000,-0.84000000,-0.70000000,0.44000000,4.75000000,-1.00000000,-0.25000000,-0.09208793,0.01023199,-0.13881913,355.50000000,1422.00000000,356.09970304,0.74855038,0.13980146,0.03986140,0.02276205,0.00649075,0.02276205,0.02356758,0.00927242,0.00649075,0.00927242,0.00770447
0,78283,14,10.31250000,-0.55000000,-0.14000000,-0.23000000,-16.62500000,-9.75000000,-1.56250000,0.09300423,0.09086621,-0.15500706,355.37500000,1421.50000000,356.15955968,0.68567739,0.10747911,0.03986140,0.02276205,0.00649075,0.02276205,0.02356758,0.00927242,0.00649075,0.00927242,0.00770447
0,78667,14,10.31250000,-0.38000000,-0.91000000,-0.63000000,-11.31250000,0.06250000,-5.12500000,0.07574729,0.00259618,-0.18829921,351.43750000,1405.75000000,354.92146121,0.00877554,-0.06864075,0.03986140,0.02276205,0.00649075,0.02276205,0.02356758,0.00927242,0.00649075,0.00927242,0.00770447
0,79051,14,10.31250000,-0.53000000,-0.81000000,-2.18000000,8.93750000,0.06250000,10.31250000,-0.48701230,-0.24480423,0.06078109,349.75000000,1399.00000000,353.24798844,-0.83386230,-0.28227057,0.03986140,0.02276205,0.00649075,0.02276205,0.02356758,0.00927242,0.00649075,0.00927242,0.00770447
0,79436,14,10.31250000,-0.87000000,-0.15000000,0.62000000,0.81250000,-0.12500000,-0.87500000,-0.05513059,-0.01237002,-0.12461650,348.62500000,1394.50000000,351.46076075,-1.60642716,-0.42512405,0.03986140,0.02276205,0.00649075,0.02276205,0.02356758,0.00927242,0.00649075,0.00927242,0.00770447
0,79820,14,10.31250000,-0.96000000,-0.33000000,0.43000000,-2.56250000,3.43750000,-3.31250000,0.00687223,-0.04276057,-0.16019940,348.43750000,1393.75000000,349.87456121,-2.19713339,-0.51247029,0.03986140,0.02276205,0.00649075,0.02276205,0.02356758,0.00927242,0.00649075,0.00927242,0.00770447
0,80204,14,10.31250000,-0.18000000,0.57000000,-1.41000000,4.25000000,-6.75000000,5.12500000,-0.14126259,0.05497787,-0.01206459,348.56250000,1394.25000000,348.57019395,-2.60795119,-0.56937731,0.03986140,0.02276205,0.00649075,0.02276205,0.02356758,0.00927242,0.00649075,0.00927242,0.00770447
0,80588,14,10.31250000,-3.03000000,0.70000000,0.71000000,16.06250000,9.87500000,8.87500000,-0.29199359,-0.18661933,0.05940664,335.56250000,1342.25000000,343.43754813,-4.72533336,-0.99206352,0.03986140,0.02276205,0.00649075,0.02276205,0.02356758,0.00927242,0.00649075,0.00927242,0.00770447
0,80972,14,10.31250000,1.38000000,-1.08000000,3.20000000,-4.75000000,3.81250000,0.06250000,0.03115413,-0.01298089,-0.10445796,341.06250000,1364.25000000,340.88154345,-5.35825907,-0.99628417,0.03986140,0.02276205,0.00649075,0.02276205,0.02356758,0.00927242,0.00649075,0.00927242,0.00770447
0,81356,14,10.31250000,-0.13000000,-0.08000000,1.85000000,16.93750000,2.93750000,-0.06250000,-0.22495112,-0.05971208,-0.06475171,348.31250000,1393.25000000,341.16696356,-4.56898332,-0.68427908,0.03986140,0.02276205,0.00649075,0.02276205,0.02356758,0.00927242,0.00649075,0.00927242,0.00770447
0,81740,14,10.31250000,-0.67000000,-0.32000000,2.09000000,6.50000000,-2.18750000,0.87500000,-0.14202616,0.03863723,-0.08093964,348.81250000,1395.25000000,341.84251040,-3.63066671,-0.36729835,0.03986140,0.02276205,0.00649075,0.02276205,0.02356758,0.00927242,0.00649075,0.00927242,0.00770447
0,82124,14,10.31250000,0.49000000,-0.02000000,1.02000000,-20.43750000,-4.93750000,1.81250000,0.16371189,0.09712757,-0.06062838,348.81250000,1395.25000000,342.66205401,-2.70407689,-0.09831222,0.03986140,0.02276205,0.00649075,0.02276205,0.02356758,0.00927242,0.00649075,0.00927242,0.00770447
0,82508,14,10.31250000,-1.10000000,0.19000000,1.30000000,10.31250000,3.43750000,1.25000000,-0.11362094,-0.04978552,-0.07131851,348.31250000,1393.25000000,343.43653168,-1.87055312,0.12397750,0.03986140,0.02276205,0.00649075,0.02276205,0.02356758,0.00927242,0.00649075,0.00927242,0.00770447
0,82892,14,10.31250000,0.20000000,1.23000000,0.60000000,14.75000000,1.50000000,10.68750000,-0.11530081,-0.03878994,0.10262536,348.50000000,1394.00000000,344.34382703,-1.06088487,0.30928527,0.03986140,0.02276205,0.00649075,0.02276205,0.02356758,0.00927242,0.00649075,0.00927242,0.00770447
0,83276,14,10.31250000,-0.81000000,-0.04000000,0.01000000,41.50000000,16.75000000,9.12500000,-0.72036284,-0.31001413,0.05070182,348.43750000,1393.75000000,345.25335407,-0.34255030,0.44692573,0.03986140,0.02276205,0.00649075,0.02276205,0.02356758,0.00927242,0.00649075,0.00927242,0.00770447
0,83660,14,10.31250000,-0.93000000,0.43000000,0.81000000,-2.18750000,2.62500000,-3.62500000,-0.00549779,-0.05849034,-0.15118915,348.62500000,1394.50000000,346.22874484,0.33648676,0.56970905,0.03986140,0.02276205,0.00649075,0.02276205,0.02356758,0.00927242,0.00649075,0.00927242,0.00770447
0,84044,14,10.31250000,-0.17000000,1.35000000,0.83000000,-15.81250000,-6.87500000,-2.56250000,0.24083361,0.11239921,-0.10583240,348.62500000,1394.50000000,347.16125228,0.91517682,0.65612187,0.03986140,0.02276205,0.00649075,0.02276205,0.02356758,0.00927242,0.00649075,0.00927242,0.00770447
0,84428,14,10.31250000,-1.04000000,-0.38000000,-0.64000000,7.18750000,-2.68750000,4.93750000,-0.21044306,0.02382374,-0.01908954,348.62500000,1394.50000000,347.99988161,1.35222359,0.68339344,0.03986140,0.02276205,0.00649075,0.02276205,0.02356758,0.00927242,0.00649075,0.00927242,0.00770447
0,84812,14,10.31250000,-0.79000000,0.22000000,0.26000000,-6.06250000,0.37500000,4.81250000,0.02886338,-0.02519819,0.03634648,348.68750000,1394.75000000,348.77549324,1.70478603,0.69790603,0.03986140,0.02276205,0.00649075,0.02276205,0.02356758,0.00927242,0.00649075,0.00927242,0.00770447
0,85196,14,10.31250000,-0.62000000,0.16000000,1.55000000,-2.75000000,-6.18750000,8.87500000,0.01084286,0.10522153,0.04199699,348.81250000,1395.25000000,349.50128131,1.99599412,0.71087457,0.03986140,0.02276205,0.00649075,0.02276205,0.02356758,0.00927242,0.00649075,0.00927242,0.00770447
0,85580,14,10.31250000,-0.57000000,0.13000000,0.16000000,-2.68750000,-0.43750000,4.37500000,0.03054326,0.00549779,-0.03084869,348.81250000,1395.25000000,350.08628418,2.15181974,0.67484004,0.03986140,0.02276205,0.00649075,0.02276205,0.02356758,0.00927242,0.00649075,0.00927242,0.00770447
0,85966,14,10.31250000,-0.55000000,-0.64000000,1.07000000,-3.93750000,0.50000000,-0.75000000,0.00503964,-0.01221730,-0.11621711,348.62500000,1394.50000000,350.49887276,2.20128417,0.62783268,0.03986140,0.02276205,0.00649075,0.02276205,0.02356758,0.00927242,0.00649075,0.00927242,0.00770447
0,86348,14,10.31250000,-0.66000000,0.63000000,1.57000000,10.50000000,7.18750000,3.18750000,-0.08964448,-0.08811731,-0.02794708,348.62500000,1394.50000000,350.80517863,2.18433520,0.57571714,0.03986140,0.02276205,0.00649075,0.02276205,0.02356758,0.00927242,0.00649075,0.00927242,0.00770447
0,86732,14,10.31250000,-0.76000000,0.12000000,0.35000000,-9.00000000,-4.56250000,5.56250000,0.08048149,0.06841691,0.00152716,348.93750000,1395.75000000,351.08416381,2.12129151,0.50423583,0.03986140,0.02276205,0.00649075,0.02276205,0.02356758,0.00927242,0.00649075,0.00927242,0.00770447
0,87116,14,10.31250000,-0.63000000,0.08000000,0.26000000,3.18750000,7.00000000,-0.06250000,-0.08842274,-0.13026701,-0.07437284,348.81250000,1395.25000000,351.20572778,1.97063581,0.41862162,0.03986140,0.02276205,0.00649075,0.02276205,0.02356758,0.00927242,0.00649075,0.00927242,0.00770447
0,87500,14,10.31250000,-0.24000000,0.61000000,0.93000000,9.00000000,3.93750000,-2.81250000,-0.19501872,-0.07483099,-0.12385292,348.68750000,1394.75000000,351.19792980,1.76834464,0.33742758,0.03986140,0.02276205,0.00649075,0.02276205,0.02356758,0.00927242,0.00649075,0.00927242,0.00770447
0,87884,14,10.31250000,-0.63000000,0.33000000,0.15000000,-1.87500000,3.00000000,0.56250000,-0.03711006,-0.05070182,-0.11484266,348.93750000,1395.75000000,351.17739717,1.55712301,0.25369449,0.03986140,0.02276205,0.00649075,0.02276205,0.02356758,0.00927242,0.00649075,0.00927242,0.00770447
0,88268,14,10.31250000,-0.16000000,0.67000000,-0.62000000,-0.06250000,-1.75000000,-4.62500000,0.01023199,-0.00702495,-0.17898351,348.81250000,1395.25000000,351.02604558,1.28253889,0.15516533,0.03986140,0.02276205,0.00649075,0.02276205,0.02356758,0.00927242,0.00649075,0.00927242,0.00770447
0,88652,14,10.31250000,-0.44000000,0.29000000,1.07000000,5.00000000,0.43750000,4.43750000,-0.13591751,0.00259618,-0.05085453,348.93750000,1395.75000000,350.87958680,1.05301296,0.09660163,0.03986140,0.02276205,0.00649075,0.02276205,0.02356758,0.00927242,0.00649075,0.00927242,0.00770447
0,89036,14,10.31250000,-0.14000000,0.71000000,0.38000000,-10.31250000,4.18750000,1.37500000,0.34773505,-0.05635232,-0.08659014,347.37500000,1389.50000000,350.18277993,0.57636584,-0.02099757,0.03986140,0.02276205,0.00649075,0.02276205,0.02356758,0.00927242,0.00649075,0.00927242,0.00770447
0,89420,14,10.31250000,0.00000000,0.31000000,1.07000000,-10.93750000,-1.93750000,-2.25000000,0.17012598,0.02901610,-0.14019358,324.31250000,1297.25000000,342.22748357,-3.24513164,-0.89487901,0.03986140,0.02276205,0.00649075,0.02276205,0.02356758,0.00927242,0.00649075,0.00927242,0.00770447
0,89804,14,10.31250000,-1.44000000,0.32000000,1.82000000,-18.93750000,1.87500000,-4.00000000,0.29718593,-0.00534507,-0.21029036,348.81250000,1395.25000000,343.05537771,-2.54580449,-0.61746085,0.03986140,0.02276205,0.00649075,0.02276205,0.02356758,0.00927242,0.00649075,0.00927242,0.00770447
0,90188,14,10.31250000,-0.37000000,0.33000000,0.60000000,8.00000000,-1.68750000,-2.68750000,-0.20509800,0.01450805,-0.16707164,348.75000000,1395.00000000,343.86351569,-1.90772656,-0.39692740,0.03986140,0.02276205,0.00649075,0.02276205,0.02356758,0.00927242,0.00649075,0.00927242,0.00770447
0,90572,14,10.31250000,-0.57000000,0.23000000,0.07000000,-6.43750000,-0.75000000,7.81250000,0.06261369,-0.00305433,0.06383542,348.81250000,1395.25000000,344.68244372,-1.31372275,-0.21565972,0.03986140,0.02276205,0.00649075,0.02276205,0.02356758,0.00927242,0.00649075,0.00927242,0.00770447
0,90956,14,10.31250000,-0.73000000,0.38000000,0.22000000,18.12500000,-3.31250000,30.75000000,-0.29779682,0.06185010,0.40042216,349.00000000,1396.00000000,345.54040853,-0.74508008,-0.05758119,0.03986140,0.02276205,0.00649075,0.02276205,0.02356758,0.00927242,0.00649075,0.00927242,0.00770447
0,91340,14,10.31250000,-0.37000000,0.51000000,0.36000000,0.25000000,-10.87500000,21.87500000,-0.03115413,0.17470746,0.25778514,348.81250000,1395.25000000,346.29518544,-0.27176545,0.06330354,0.03986140,0.02276205,0.00649075,0.02276205,0.02356758,0.00927242,0.00649075,0.00927242,0.00770447
0,91724,14,10.31250000,1.23000000,0.66000000,-0.33000000,12.56250000,-6.81250000,22.50000000,-0.32009339,0.13087788,0.30512717,348.93750000,1395.75000000,347.02644544,0.13529803,0.14815347,0.03986140,0.02276205,0.00649075,0.02276205,0.02356758,0.00927242,0.00649075,0.00927242,0.00770447
0,92108,14,10.31250000,-0.54000000,1.45000000,-1.03000000,16.06250000,-8.37500000,33.00000000,-0.12125675,0.09330966,0.43982297,348.62500000,1394.50000000,347.57567885,0.40155592,0.18324407,0.03986140,0.02276205,0.00649075,0.02276205,0.02356758,0.00927242,0.00649075,0.00927242,0.00770447
0,92492,14,10.31250000,-0.53000000,-0.33000000,-0.02000000,13.75000000,2.81250000,19.18750000,-0.20173825,-0.06979135,0.24312437,348.56250000,1394.25000000,348.05110925,0.61307920,0.21321648,0.03986140,0.02276205,0.00649075,0.02276205,0.02356758,0.00927242,0.00649075,0.00927242,0.00770447
0,92876,14,10.31250000,1.52000000,0.30000000,1.27000000,-2.00000000,7.37500000,-3.31250000,-0.11484266,-0.12247848,-0.16722436,348.31250000,1393.25000000,348.40016074,0.75767653,0.23902353,0.03986140,0.02276205,0.00649075,0.02276205,0.02356758,0.00927242,0.00649075,0.00927242,0.00770447
0,93260,14,10.31250000,-1.43000000,0.25000000,1.13000000,11.31250000,3.68750000,3.68750000,-0.02397646,-0.06933320,-0.03008511,348.37500000,1393.50000000,348.71274438,0.86572957,0.25195318,0.03986140,0.02276205,0.00649075,0.02276205,0.02356758,0.00927242,0.00649075,0.00927242,0.00770447
0,93644,14,10.31250000,-0.70000000,0.51000000,-0.34000000,-15.00000000,-5.56250000,4.06250000,0.16859880,0.08399397,-0.03878994,348.62500000,1394.50000000,349.02344076,0.93493822,0.23766741,0.03986140,0.02276205,0.00649075,0.02276205,0.02356758,0.00927242,0.00649075,0.00927242,0.00770447
0,94028,14,10.31250000,-0.23000000,1.11000000,0.59000000,-5.93750000,-1.93750000,2.18750000,0.11362094,0.03191771,-0.07941248,348.62500000,1394.50000000,349.27649088,0.97455835,0.22842280,0.03986140,0.02276205,0.00649075,0.02276205,0.02356758,0.00927242,0.00649075,0.00927242,0.00770447
0,94412,14,10.31250000,-0.21000000,0.34000000,0.32000000,27.75000000,-0.31250000,1.68750000,-0.42348233,-0.02351831,-0.11713341,348.50000000,1394.00000000,349.42001401,0.94849418,0.20171523,0.03986140,0.02276205,0.00649075,0.02276205,0.02356758,0.00927242,0.00649075,0.00927242,0.00770447
0,94796,14,10.31250000,-0.25000000,0.37000000,0.32000000,-11.68750000,-0.31250000,-0.31250000,0.18845192,-0.00076358,-0.08139779,348.68750000,1394.75000000,349.56602783,0.91940118,0.17701104,0.03986140,0.02276205,0.00649075,0.02276205,0.02356758,0.00927242,0.00649075,0.00927242,0.00770447
0,95180,14,10.31250000,-0.12000000,0.43000000,0.23000000,-0.37500000,-0.25000000,-0.12500000,0.04413501,-0.01649336,-0.10140363,348.62500000,1394.50000000,349.63207904,0.84843632,0.14407133,0.03986140,0.02276205,0.00649075,0.02276205,0.02356758,0.00927242,0.00649075,0.00927242,0.00770447
0,95568,14,10.31250000,-0.17000000,0.17000000,0.10000000,-5.68750000,0.06250000,-0.25000000,0.02825252,-0.00855211,-0.10659599,348.50000000,1394.00000000,349.60662791,0.73431449,0.10302862,0.03986140,0.02276205,0.00649075,0.02276205,0.02356758,0.00927242,0.00649075,0.00927242,0.00770447
0,95948,14,10.31250000,-0.10000000,0.22000000,0.19000000,2.87500000,0.06250000,0.06250000,-0.06337727,-0.00809396,-0.10491610,348.62500000,1394.50000000,349.58449052,0.62992795,0.06954398,0.03986140,0.02276205,0.00649075,0.02276205,0.02356758,0.00927242,0.00649075,0.00927242,0.00770447
0,96332,14,10.31250000,-0.05000000,-0.01000000,-0.01000000,-0.18750000,-0.43750000,0.00000000,-0.04688391,-0.00962113,-0.10155635,348.81250000,1395.25000000,349.58381283,0.54001953,0.04064659,0.03986140,0.02276205,0.00649075,0.02276205,0.02356758,0.00927242,0.00649075,0.00927242,0.00770447
0,96716,14,10.31250000,-0.05000000,0.05000000,0.02000000,-1.75000000,-0.18750000,-0.06250000,-0.03145956,-0.00962113,-0.10064005,348.81250000,1395.25000000,349.54795751,0.44057135,0.01289891,0.03986140,0.02276205,0.00649075,0.02276205,0.02356758,0.00927242,0.00649075,0.00927242,0.00770447
0,97100,14,10.31250000,-0.04000000,0.10000000,0.09000000,0.37500000,-0.12500000,0.00000000,-0.05161811,-0.00427606,-0.11468995,348.62500000,1394.50000000,349.42577785,0.31032191,-0.01828024,0.03986140,0.02276205,0.00649075,0.02276205,0.02356758,0.00927242,0.00649075,0.00927242,0.00770447
0,97484,14,10.31250000,-0.07000000,0.08000000,-0.34000000,-2.25000000,-0.50000000,-0.25000000,-0.02687807,-0.01069014,-0.09071349,348.62500000,1394.50000000,349.28389261,0.17704921,-0.05174543,0.03986140,0.02276205,0.00649075,0.02276205,0.02356758,0.00927242,0.00649075,0.00927242,0.00770447
0,97868,14,10.31250000,-0.03000000,0.13000000,0.12000000,0.93750000,0.06250000,0.00000000,-0.04444045,-0.01191187,-0.07055493,348.81250000,1395.25000000,349.20113858,0.09137843,-0.06537444,0.03986140,0.02276205,0.00649075,0.02276205,0.02356758,0.00927242,0.00649075,0.00927242,0.00770447
0,98252,14,10.31250000,0.00000000,0.04000000,0.07000000,0.81250000,0.00000000,-0.06250000,-0.05604688,-0.00824668,-0.08796459,348.87500000,1395.50000000,349.13015271,0.02122334,-0.07447836,0.03986140,0.02276205,0.00649075,0.02276205,0.02356758,0.00927242,0.00649075,0.00927242,0.00770447
0,98638,15,10.31250000,0.01000000,0.03000000,0.01000000,0.06250000,0.06250000,-0.06250000,-0.05696318,-0.00794125,-0.10140363,348.87500000,1395.50000000,349.05342298,-0.04305035,-0.08188356,0.03986140,0.02276205,0.00649075,0.02276205,0.02356758,0.00927242,0.00649075,0.00927242,0.00770447
0,99020,15,10.31250000,-0.12000000,0.10000000,0.12000000,1.00000000,-0.25000000,0.12500000,-0.04657847,-0.00565050,-0.10231993,348.68750000,1394.75000000,348.91850920,-0.12385239,-0.09103585,0.03986140,0.02276205,0.00649075,0.02276205,0.02356758,0.00927242,0.00649075,0.00927242,0.00770447
0,99404,14,10.31250000,0.02000000,0.13000000,0.09000000,1.81250000,-0.18750000,0.06250000,-0.05604688,-0.00946841,-0.09010262,348.75000000,1395.00000000,348.81431162,-0.17933219,-0.09361285,0.03986140,0.02276205,0.00649075,0.02276205,0.02356758,0.00927242,0.00649075,0.00927242,0.00770447
0,99788,14,10.31250000,-0.19000000,0.55000000,1.42000000,197.00000000,1.06250000,19.18750000,-2.61801577,-0.10293079,0.12705997,348.50000000,1394.00000000,348.66435163,-0.22644174,-0.07875846,0.03986140,0.02276205,0.00649075,0.02276205,0.02356758,0.00927242,0.00649075,0.00927242,0.00770447
0,100172,14,10.31250000,-0.49000000,-0.20000000,-0.17000000,-62.37500000,0.06250000,-7.68750000,0.90438598,0.01695151,-0.19624045,348.62500000,1394.50000000,348.55841367,-0.26440979,-0.08129917,0.03986140,0.02276205,0.00649075,0.02276205,0.02356758,0.00927242,0.00649075,0.00927242,0.00770447
0,100556,14,10.31250000,-0.37000000,0.34000000,-0.02000000,3.56250000,-1.00000000,0.68750000,-0.07925977,0.00671952,-0.11850785,348.81250000,1395.25000000,348.53322213,-0.25625569,-0.07111119,0.03986140,0.02276205,0.00649075,0.02276205,0.02356758,0.00927242,0.00649075,0.00927242,0.00770447
0,100940,14,10.31250000,-0.03000000,0.36000000,0.01000000,0.81250000,-0.37500000,0.93750000,-0.14874569,-0.01206459,-0.04612032,348.62500000,1394.50000000,348.46080899,-0.26784407,-0.06619516,0.03986140,0.02276205,0.00649075,0.02276205,0.02356758,0.00927242,0.00649075,0.00927242,0.00770447
0,101324,14,10.31250000,-0.32000000,-0.07000000,0.17000000,0.81250000,0.06250000,0.25000000,-0.09010262,-0.01084286,-0.08842274,348.75000000,1395.00000000,348.44937183,-0.24465918,-0.05185650,0.03986140,0.02276205,0.00649075,0.02276205,0.02356758,0.00927242,0.00649075,0.00927242,0.00770447
0,101710,15,10.31250000,0.06000000,-0.38000000,0.02000000,-2.43750000,-0.18750000,-0.06250000,-0.07238753,-0.00106901,-0.15745051,348.68750000,1394.75000000,348.42896162,-0.22740994,-0.04207134,0.03986140,0.02276205,0.00649075,0.02276205,0.02356758,0.00927242,0.00649075,0.00927242,0.00770447
0,102092,15,10.31250000,-0.34000000,0.00000000,0.13000000,-3.43750000,0.25000000,0.06250000,-0.01389718,-0.01450805,-0.10155635,348.62500000,1394.50000000,348.40414090,-0.21034784,-0.03208044,0.03986140,0.02276205,0.00649075,0.02276205,0.02356758,0.00927242,0.00649075,0.00927242,0.00770447
0,102476,15,10.31250000,-0.21000000,0.49000000,0.35000000,5.18750000,-0.87500000,-0.31250000,-0.12217305,0.00412334,-0.11972959,348.62500000,1394.50000000,348.39782891,-0.18091256,-0.01773511,0.03986140,0.02276205,0.00649075,0.02276205,0.02356758,0.00927242,0.00649075,0.00927242,0.00770447
0,102860,15,10.31250000,-0.07000000,0.04000000,-0.05000000,-6.68750000,-0.81250000,-0.81250000,0.15286903,-0.00519235,-0.13607022,348.75000000,1395.00000000,348.43859382,-0.13616157,-0.00586630,0.03986140,0.02276205,0.00649075,0.02276205,0.02356758,0.00927242,0.00649075,0.00927242,0.00770447
0,103244,15,10.31250000,-0.40000000,0.38000000,0.17000000,-2.25000000,-0.37500000,0.56250000,-0.01908954,-0.00503964,-0.06643160,348.62500000,1394.50000000,348.44817859,-0.10664642,0.00371672,0.03986140,0.02276205,0.00649075,0.02276205,0.02356758,0.00927242,0.00649075,0.00927242,0.00770447
0,103628,15,10.31250000,-0.19000000,-0.13000000,0.05000000,-1.43750000,-0.18750000,-0.37500000,-0.02321288,-0.00549779,-0.13469578,348.50000000,1394.00000000,348.42497861,-0.09646435,0.00644239,0.03986140,0.02276205,0.00649075,0.02276205,0.02356758,0.00927242,0.00649075,0.00927242,0.00770447
0,104012,15,10.31250000,0.07000000,-0.53000000,-0.63000000,0.93750000,-1.37500000,5.12500000,-0.49021935,-0.00305433,0.05543602,348.81250000,1395.25000000,348.50101505,-0.05130560,0.00925757,0.03986140,0.02276205,0.00649075,0.02276205,0.02356758,0.00927242,0.00649075,0.00927242,0.00770447
0,104396,15,10.31250000,0.04000000,0.05000000,0.24000000,-0.87500000,0.00000000,-0.18750000,0.03145956,-0.00962113,-0.09117164,348.56250000,1394.25000000,348.50536929,-0.03328912,0.01532792,0.03986140,0.02276205,0.00649075,0.02276205,0.02356758,0.00927242,0.00649075,0.00927242,0.00770447
0,104780,15,10.31250000,0.05000000,0.00000000,0.22000000,7.00000000,-0.93750000,-0.37500000,-0.02825252,0.00106901,-0.11881328,348.50000000,1394.00000000,348.49543568,-0.02348650,0.01862971,0.03986140,0.02276205,0.00649075,0.02276205,0.02356758,0.00927242,0.00649075,0.00927242,0.00770447
0,105164,15,10.31250000,-0.27000000,0.09000000,0.46000000,7.31250000,1.00000000,-0.06250000,-0.04780021,-0.00152716,-0.12507465,348.50000000,1394.00000000,348.49648097,-0.00544771,0.02623216,0.03986140,0.02276205,0.00649075,0.02276205,0.02356758,0.00927242,0.00649075,0.00927242,0.00770447
0,105549,15,10.31250000,-0.02000000,0.00000000,-0.01000000,6.25000000,-0.56250000,0.12500000,-0.05329799,-0.01511891,-0.09376781,348.62500000,1394.50000000,348.53641082,0.02277502,0.03006016,0.03986140,0.02276205,0.00649075,0.02276205,0.02356758,0.00927242,0.00649075,0.00927242,0.00770447
0,105932,15,10.31250000,-0.38000000,0.27000000,0.45000000,-11.18750000,-0.18750000,-0.25000000,0.11881328,0.01099557,-0.08292495,348.87500000,1395.50000000,348.66132231,0.09423612,0.04874024,0.03986140,0.02276205,0.00649075,0.02276205,0.02356758,0.00927242,0.00649075,0.00927242,0.00770447
0,106316,15,10.31250000,-0.62000000,0.19000000,-0.10000000,-11.50000000,-0.56250000,-0.81250000,0.16936238,0.00320704,-0.11255192,348.62500000,1394.50000000,348.68683821,0.10395753,0.04484764,0.03986140,0.02276205,0.00649075,0.02276205,0.02356758,0.00927242,0.00649075,0.00927242,0.00770447
0,106700,15,10.31250000,-0.54000000,-0.03000000,-0.02000000,-2.93750000,-0.06250000,-0.06250000,-0.07467827,-0.00778853,-0.11743885,348.62500000,1394.50000000,348.70906431,0.11036040,0.04146934,0.03986140,0.02276205,0.00649075,0.02276205,0.02356758,0.00927242,0.00649075,0.00927242,0.00770447
0,107084,15,10.31250000,-0.72000000,0.63000000,0.40000000,0.87500000,-0.31250000,0.75000000,0.17669277,-0.00213803,-0.09132435,348.56250000,1394.25000000,348.71356135,0.11274890,0.04226935,0.03986140,0.02276205,0.00649075,0.02276205,0.02356758,0.00927242,0.00649075,0.00927242,0.00770447
0,107468,15,10.31250000,-0.02000000,0.16000000,0.10000000,0.12500000,-0.25000000,0.18750000,-0.03145956,-0.00626137,-0.10644327,348.56250000,1394.25000000,348.71269821,0.10778013,0.03786128,0.03986140,0.02276205,0.00649075,0.02276205,0.02356758,0.00927242,0.00649075,0.00927242,0.00770447
0,107852,15,10.31250000,-0.08000000,0.44000000,0.25000000,5.56250000,-0.06250000,-0.06250000,-0.11255192,-0.01023199,-0.11209377,348.62500000,1394.50000000,348.73220188,0.11412487,0.03823590,0.03986140,0.02276205,0.00649075,0.02276205,0.02356758,0.00927242,0.00649075,0.00927242,0.00770447
0,108236,15,10.31250000,-0.22000000,0.34000000,0.24000000,5.31250000,0.12500000,0.00000000,-0.08139779,-0.01221730,-0.07956520,348.62500000,1394.50000000,348.74780559,0.11747696,0.03775469,0.03986140,0.02276205,0.00649075,0.02276205,0.02356758,0.00927242,0.00649075,0.00927242,0.00770447
0,108620,15,10.31250000,-0.08000000,0.04000000,0.08000000,-1.75000000,-0.06250000,-0.12500000,-0.01313360,-0.00946841,-0.09483683,348.75000000,1395.00000000,348.79668816,0.13316949,0.03835958,0.03986140,0.02276205,0.00649075,0.02276205,0.02356758,0.00927242,0.00649075,0.00927242,0.00770447
0,109004,15,10.31250000,-0.01000000,0.08000000,0.09000000,0.25000000,-0.12500000,0.06250000,-0.04428773,-0.00962113,-0.08720101,348.93750000,1395.75000000,348.89563630,0.16988027,0.04387396,0.03986140,0.02276205,0.00649075,0.02276205,0.02356758,0.00927242,0.00649075,0.00927242,0.00770447
0,109388,15,10.31250000,-0.04000000,0.04000000,0.10000000,-0.12500000,0.12500000,0.06250000,-0.04245514,-0.00992656,-0.09529497,348.68750000,1394.75000000,348.89855920,0.15701624,0.03738505,0.03986140,0.02276205,0.00649075,0.02276205,0.02356758,0.00927242,0.00649075,0.00927242,0.00770447
0,109772,15,10.31250000,0.00000000,0.09000000,0.15000000,3.12500000,0.25000000,-0.06250000,-0.09269881,-0.01099557,-0.08384126,348.56250000,1394.25000000,348.85652748,0.12401116,0.02745677,0.03986140,0.02276205,0.00649075,0.02276205,0.02356758,0.00927242,0.00649075,0.00927242,0.00770447
0,111771,14,10.31250000,-0.04000000,0.20000000,0.33000000,-18.93750000,-0.75000000,-0.81250000,0.29978213,0.00748310,-0.08429940,349.87500000,1399.50000000,349.79426021,0.40220539,0.06743524,0.23987263,0.12029616,0.03022250,0.12029616,0.07115208,0.02011674,0.03022250,0.02011674,0.00770447
0,112155,14,10.12500000,-0.77000000,1.25000000,0.23000000,-12.81250000,-0.87500000,0.00000000,0.32314768,0.00580322,-0.08216137,349.18750000,1396.75000000,349.52153755,0.25076071,0.03099714,0.08616002,0.03990188,0.00924825,0.03990188,0.02923519,0.00884069,0.00924825,0.00884069,0.00525844
0,112539,14,10.25000000,0.18000000,-0.19000000,0.14000000,13.43750000,-0.06250000,0.75000000,-0.22876903,-0.01863139,-0.07269296,348.93750000,1395.75000000,349.33215969,0.15288023,0.01029620,0.05928311,0.02696488,0.00612938,0.02696488,0.02297443,0.00725325,0.00612938,0.00725325,0.00534398
0,112923,15,10.25000000,0.78000000,1.19000000,1.01000000,8.50000000,0.00000000,0.18750000,0.17654005,0.01802053,-0.10919216,349.00000000,1396.00000000,349.26999600,0.12320481,0.01221065,0.04862505,0.02253052,0.00521237,0.02253052,0.02111791,0.00696087,0.00521237,0.00696087,0.00570950
0,113307,15,10.25000000,0.75000000,0.71000000,1.36000000,-65.43750000,0.43750000,-1.06250000,1.58244646,0.05986479,-0.14752395,349.06250000,1396.25000000,349.26039092,0.12312108,0.02378733,0.04340866,0.02083768,0.00499310,0.02083768,0.02066136,0.00710633,0.00499310,0.00710633,0.00612057
0,113691,15,10.25000000,-0.21000000,-0.79000000,-0.52000000,-59.43750000,-0.68750000,-1.81250000,0.70448035,0.01099557,-0.12843442,349.06250000,1396.25000000,349.23611922,0.09567555,0.01088184,0.04071743,0.02032939,0.00506722,0.02032939,0.02079574,0.00742782,0.00506722,0.00742782,0.00650692
0,114075,15,10.25000000,-0.59000000,0.55000000,0.10000000,45.37500000,-0.62500000,0.31250000,-0.65270948,-0.02932153,-0.09468412,348.93750000,1395.75000000,349.17898374,0.06196093,0.00391347,0.03938268,0.02038646,0.00526934,0.02038646,0.02118905,0.00780317,0.00526934,0.00780317,0.00683991
0,114459,15,10.31250000,0.07000000,2.99000000,2.40000000,-28.43750000,-1.50000000,0.12500000,0.95294976,0.06856962,-0.08002335,349.12500000,1396.50000000,349.21916170,0.10528092,0.03893014,0.03881601,0.02070290,0.00551393,0.02070290,0.02166901,0.00816565,0.00551393,0.00816565,0.00710911
0,114843,15,10.25000000,-1.08000000,-0.75000000,-1.12000000,7.75000000,0.25000000,-0.18750000,-0.26694810,-0.04886922,-0.09544769,349.12500000,1396.50000000,349.21610457,0.08258865,0.01763886,0.03867875,0.02111001,0.00575305,0.02111001,0.02213883,0.00848022,0.00575305,0.00848022,0.00731482
0,115227,15,10.31250000,0.07000000,0.17000000,0.22000000,-24.06250000,-0.06250000,-1.00000000,0.37110063,0.00809396,-0.14095715,349.12500000,1396.50000000,349.22363759,0.08104117,0.01795934,0.03876405,0.02151382,0.00596150,0.02151382,0.02254772,0.00873286,0.00596150,0.00873286,0.00746387
0,115611,15,10.31250000,0.27000000,0.49000000,0.02000000,1.43750000,-0.37500000,-0.50000000,0.02809980,-0.00351248,-0.10277808,349.06250000,1396.25000000,349.20579743,0.06507718,0.01270149,0.03894567,0.02186666,0.00612925,0.02186666,0.02287558,0.00892332,0.00612925,0.00892332,0.00756633
0,115995,15,10.31250000,-0.04000000,-0.64000000,-0.79000000,3.00000000,-0.56250000,-0.12500000,-0.23212880,-0.01542435,-0.12507465,349.12500000,1396.50000000,349.19371661,0.04005985,-0.00338455,0.03915030,0.02215032,0.00625589,0.02215032,0.02312183,0.00905910,0.00625589,0.00905910,0.00763305
0,116379,15,10.31250000,0.65000000,1.12000000,0.30000000,29.81250000,-0.25000000,0.75000000,-0.38866299,-0.01343904,-0.09483683,348.81250000,1395.25000000,349.09432009,-0.00967890,-0.01112791,0.03933944,0.02236422,0.00634637,0.02236422,0.02329658,0.00915098,0.00634637,0.00915098,0.00767396
0,116763,15,10.31250000,0.80000000,3.31000000,-1.93000000,-19.68750000,0.06250000,-1.25000000,0.72647148,-0.06948592,-0.11682797,349.25000000,1397.00000000,349.10779807,-0.03543575,-0.03801926,0.03949656,0.02251698,0.00640778,0.02251698,0.02341421,0.00920997,0.00640778,0.00920997,0.00769727
0,117147,15,10.31250000,0.15000000,-0.74000000,-0.27000000,-1.68750000,-0.31250000,-0.62500000,-0.28069258,-0.01267545,-0.10231993,349.06250000,1396.25000000,349.07352538,-0.06197036,-0.04340773,0.03961797,0.02262074,0.00644738,0.02262074,0.02348931,0.00924575,0.00644738,0.00924575,0.00770922
0,117531,15,10.31250000,0.56000000,0.62000000,0.29000000,8.37500000,0.12500000,0.75000000,-0.07483099,-0.01298089,-0.06200282,349.12500000,1396.50000000,349.06841634,-0.06315484,-0.03594261,0.03970663,0.02268776,0.00647154,0.02268776,0.02353454,0.00926596,0.00647154,0.00926596,0.00771427
0,117915,15,10.31250000,-0.15000000,-0.31000000,-0.25000000,-7.37500000,0.56250000,-0.37500000,-0.17409660,-0.03191771,-0.09483683,349.06250000,1396.25000000,349.03638999,-0.08270484,-0.03964859,0.03976829,0.02272874,0.00648530,0.02272874,0.02355990,0.00927628,0.00648530,0.00927628,0.00771542
0,118299,15,10.31250000,0.22000000,-0.72000000,-0.12000000,1.81250000,-0.56250000,-0.06250000,-0.14416420,0.00000000,-0.09025533,349.18750000,1396.75000000,349.04846339,-0.07727497,-0.03566773,0.03980922,0.02275218,0.00649242,0.02275218,0.02357271,0.00928066,0.00649242,0.00928066,0.00771460
0,118683,15,10.31250000,-1.51000000,-0.45000000,-0.04000000,9.62500000,-0.50000000,0.18750000,-0.25900686,-0.02046399,-0.08827002,349.25000000,1397.00000000,349.08011943,-0.06106138,-0.02867489,0.03983511,0.02276438,0.00649553,0.02276438,0.02357806,0.00928170,0.00649553,0.00928170,0.00771295
0,119067,15,10.31250000,0.69000000,-0.02000000,0.07000000,-11.56250000,-0.06250000,-0.18750000,0.13072516,0.00091630,-0.09529497,349.06250000,1396.25000000,349.05080766,-0.07230502,-0.02753084,0.03985060,0.02276977,0.00649638,0.02276977,0.02357927,0.00928105,0.00649638,0.00928105,0.00771112
0,119454,15,10.31250000,0.22000000,0.16000000,-0.14000000,10.68750000,-0.93750000,0.18750000,-0.33551770,-0.01328632,-0.06276640,349.06250000,1396.25000000,349.02312745,-0.08367598,-0.02890635,0.03985924,0.02277130,0.00649607,0.02277130,0.02357840,0.00927969,0.00649607,0.00927969,0.00770943
0,119835,15,10.31250000,0.02000000,-0.61000000,-0.48000000,-10.81250000,-1.00000000,-0.31250000,0.02764165,-0.00733038,-0.10399981,349.18750000,1396.75000000,349.03383179,-0.08078490,-0.03068728,0.03986356,0.02277086,0.00649526,0.02277086,0.02357668,0.00927815,0.00649526,0.00927815,0.00770802
0,120219,15,10.31250000,-0.57000000,-0.34000000,0.12000000,4.93750000,-0.31250000,0.06250000,-0.24969116,-0.02321288,-0.15149458,349.18750000,1396.75000000,349.05194077,-0.06616059,-0.02273549,0.03986532,0.02276955,0.00649432,0.02276955,0.02357478,0.00927673,0.00649432,0.00927673,0.00770691
0,120603,15,10.31250000,0.30000000,0.52000000,0.18000000,0.87500000,0.00000000,-0.25000000,-0.01572978,-0.00091630,-0.13622294,349.06250000,1396.25000000,349.03173384,-0.06853954,-0.01886610,0.03986565,0.02276800,0.00649344,0.02276800,0.02357301,0.00927552,0.00649344,0.00927552,0.00770608
0,120987,15,10.31250000,0.11000000,1.07000000,-0.04000000,14.43750000,-0.25000000,0.50000000,-0.20082195,-0.01817324,-0.12629639,349.31250000,1397.25000000,349.09281012,-0.03454760,-0.00943934,0.03986528,0.02276654,0.00649269,0.02276654,0.02357152,0.00927457,0.00649269,0.00927457,0.00770548
0,121371,15,10.31250000,-0.37000000,1.21000000,0.29000000,21.18750000,-0.25000000,0.43750000,-0.31154129,-0.02351831,-0.06933320,349.12500000,1396.50000000,349.09403836,-0.02640242,-0.00325002,0.03986463,0.02276530,0.00649209,0.02276530,0.02357034,0.00927385,0.00649209,0.00927385,0.00770507
0,121755,15,10.31250000,-0.58000000,0.52000000,0.05000000,11.18750000,-0.18750000,-0.06250000,-0.18142699,-0.01695151,-0.10781772,349.31250000,1397.25000000,349.15378548,0.00601860,0.00521230,0.03986392,0.02276432,0.00649165,0.02276432,0.02356944,0.00927333,0.00649165,0.00927333,0.00770480
0,122139,15,10.31250000,0.13000000,0.24000000,0.25000000,-8.18750000,-0.50000000,-0.18750000,0.11988230,0.01007928,-0.08765917,349.31250000,1397.25000000,349.21070335,0.03725035,0.01478122,0.03986328,0.02276357,0.00649132,0.02276357,0.02356878,0.00927296,0.00649132,0.00927296,0.00770463
0,122523,15,10.31250000,-0.73000000,1.06000000,-0.03000000,5.68750000,-1.43750000,0.56250000,0.07162395,0.00534507,-0.17287485,349.06250000,1396.25000000,349.17831215,0.01984778,0.00886601,0.03986274,0.02276303,0.00649109,0.02276303,0.02356832,0.00927272,0.00649109,0.00927272,0.00770452
0,122907,15,10.31250000,-0.20000000,0.01000000,0.27000000,-2.12500000,-0.18750000,0.37500000,0.01908954,0.00152716,-0.12507465,349.12500000,1396.50000000,349.17389515,0.02138702,0.01138240,0.03986232,0.02276265,0.00649094,0.02276265,0.02356800,0.00927257,0.00649094,0.00927257,0.00770447
0,123291,15,10.31250000,0.37000000,0.25000000,-0.47000000,-21.37500000,-0.25000000,-0.75000000,0.28725937,-0.00030543,-0.12171490,349.06250000,1396.25000000,349.13975000,-0.00200048,-0.00056922,0.03986201,0.02276239,0.00649085,0.02276239,0.02356780,0.00927247,0.00649085,0.00927247,0.00770444
0,123675,15,10.31250000,-0.15000000,0.97000000,0.20000000,5.31250000,-0.62500000,0.37500000,0.05085453,-0.01466077,-0.09712757,349.18750000,1396.75000000,349.15733566,0.00953231,0.00444591,0.03986179,0.02276223,0.00649079,0.02276223,0.02356767,0.00927242,0.00649079,0.00927242,0.00770443
0,124059,15,10.31250000,-0.28000000,0.04000000,0.27000000,10.50000000,0.62500000,0.12500000,-0.23594670,-0.02260201,-0.11957687,349.18750000,1396.75000000,349.17517070,0.02187743,0.00992837,0.03986163,0.02276212,0.00649075,0.02276212,0.02356760,0.00927240,0.00649075,0.00927240,0.00770443
0,124443,15,10.31250000,-0.04000000,0.27000000,0.40000000,1.68750000,-0.12500000,0.00000000,-0.15027285,-0.02183843,-0.08628471,349.18750000,1396.75000000,349.19449029,0.03656032,0.01686771,0.03986153,0.02276206,0.00649074,0.02276206,0.02356756,0.00927239,0.00649074,0.00927239,0.00770444
0,124827,15,10.31250000,-0.48000000,0.33000000,0.59000000,9.00000000,-0.25000000,-0.25000000,-0.13164146,0.02061670,-0.12980886,349.18750000,1396.75000000,349.21677535,0.05527714,0.02619195,0.03986146,0.02276203,0.00649073,0.02276203,0.02356755,0.00927239,0.00649073,0.00927239,0.00770444
0,125211,15,10.31250000,-0.31000000,0.31000000,0.19000000,-1.93750000,-0.56250000,0.18750000,0.07040222,0.00824668,-0.15118915,349.25000000,1397.00000000,349.25292750,0.07399561,0.03000181,0.03986142,0.02276202,0.00649073,0.02276202,0.02356754,0.00927239,0.00649073,0.00927239,0.00770445
0,125595,15,10.31250000,-0.17000000,0.02000000,-0.05000000,7.87500000,-0.81250000,0.06250000,-0.21410826,-0.00794125,-0.08521570,349.25000000,1397.00000000,349.28106607,0.08313154,0.02844467,0.03986140,0.02276202,0.00649073,0.02276202,0.02356755,0.00927240,0.00649073,0.00927240,0.00770445
0,125979,15,10.31250000,-0.16000000,0.20000000,0.20000000,6.87500000,0.18750000,0.06250000,-0.15760322,-0.01649336,-0.11667526,349.37500000,1397.50000000,349.34734259,0.11189703,0.03443356,0.03986139,0.02276202,0.00649074,0.02276202,0.02356756,0.00927241,0.00649074,0.00927241,0.00770446
0,126363,15,10.31250000,-0.20000000,0.04000000,0.10000000,2.18750000,-0.18750000,-0.12500000,-0.12385292,-0.00778853,-0.12843442,349.18750000,1396.75000000,349.34293357,0.10282202,0.02985580,0.03986139,0.02276202,0.00649074,0.02276202,0.02356756,0.00927241,0.00649074,0.00927241,0.00770446
0,126747,15,10.31250000,-0.05000000,-0.30000000,0.17000000,155.56250000,-0.68750000,7.68750000,-2.57296443,-0.08796459,-0.00381791,349.25000000,1397.00000000,349.35713568,0.10366566,0.02884908,0.03986139,0.02276203,0.00649074,0.02276203,0.02356757,0.00927241,0.00649074,0.00927241,0.00770446
0,127131,15,10.31250000,-0.17000000,0.24000000,0.48000000,108.75000000,0.37500000,4.87500000,-1.81686592,-0.06505714,-0.03558290,349.31250000,1397.25000000,349.39194923,0.11852472,0.03472592,0.03986139,0.02276203,0.00649075,0.02276203,0.02356757,0.00927242,0.00649075,0.00927242,0.00770447
0,127515,15,10.31250000,0.55000000,-0.61000000,-1.84000000,36.00000000,-2.12500000,1.00000000,-1.41980350,-0.06704246,-0.06215554,349.25000000,1397.00000000,349.36411657,0.06709695,-0.00181695,0.03986139,0.02276204,0.00649075,0.02276204,0.02356758,0.00927242,0.00649075,0.00927242,0.00770447
0,127899,15,10.31250000,-0.37000000,-1.14000000,0.44000000,156.93750000,0.43750000,9.50000000,-2.52516413,-0.07238753,0.04718934,349.50000000,1398.00000000,349.43977621,0.09684226,0.01017864,0.03986139,0.02276204,0.00649075,0.02276204,0.02356758,0.00927242,0.00649075,0.00927242,0.00770447
0,128283,15,10.31250000,-0.11000000,0.14000000,0.41000000,-3.87500000,0.06250000,-0.56250000,-0.11255192,-0.01038471,-0.09315695,349.37500000,1397.50000000,349.46342106,0.10040564,0.01451036,0.03986140,0.02276204,0.00649075,0.02276204,0.02356758,0.00927242,0.00649075,0.00927242,0.00770447
0,128667,15,10.31250000,-0.30000000,0.01000000,0.52000000,5.56250000,0.75000000,-0.75000000,-0.16462818,-0.06230825,-0.16310102,349.50000000,1398.00000000,349.52255231,0.12311659,0.02410246,0.03986140,0.02276205,0.00649075,0.02276205,0.02356758,0.00927242,0.00649075,0.00927242,0.00770447
0,129051,15,10.31250000,-0.05000000,-0.21000000,0.02000000,-28.81250000,1.37500000,-2.87500000,0.36193764,-0.02565634,-0.16584991,349.25000000,1397.00000000,349.48484557,0.09176044,0.01445478,0.03986140,0.02276205,0.00649075,0.02276205,0.02356758,0.00927242,0.00649075,0.00927242,0.00770447
0,129435,15,10.31250000,-0.40000000,0.15000000,0.35000000,-61.12500000,-2.25000000,-2.37500000,1.10536063,0.07055493,-0.15118915,349.62500000,1398.50000000,349.57070261,0.12586783,0.02477579,0.03986140,0.02276205,0.00649075,0.02276205,0.02356758,0.00927242,0.00649075,0.00927242,0.00770447
0,129819,15,10.31250000,-0.06000000,-0.09000000,-0.53000000,-136.00000000,-5.87500000,-11.50000000,2.10168195,0.11530081,-0.25335634,349.31250000,1397.25000000,349.52965797,0.08409227,0.00637421,0.03986140,0.02276205,0.00649075,0.02276205,0.02356758,0.00927242,0.00649075,0.00927242,0.00770447
0,130203,15,10.31250000,-0.01000000,-0.04000000,-0.05000000,-26.00000000,-0.56250000,-1.12500000,0.30741793,0.00748310,-0.12110404,349.31250000,1397.25000000,349.49248315,0.05298605,-0.00218269,0.03986140,0.02276205,0.00649075,0.02276205,0.02356758,0.00927242,0.00649075,0.00927242,0.00770447
0,130587,15,10.31250000,-0.26000000,0.30000000,0.27000000,7.81250000,0.56250000,0.75000000,-0.11988230,-0.01175916,-0.09071349,349.62500000,1398.50000000,349.55890826,0.07814780,0.00687090,0.03986140,0.02276205,0.00649075,0.02276205,0.02356758,0.00927242,0.00649075,0.00927242,0.00770447
0,130971,15,10.31250000,-0.21000000,0.22000000,0.14000000,-3.56250000,-0.06250000,0.18750000,0.02092213,0.00198531,-0.14676036,349.37500000,1397.50000000,349.53312207,0.05657140,0.00264983,0.03986140,0.02276205,0.00649075,0.02276205,0.02356758,0.00927242,0.00649075,0.00927242,0.00770447
0,131355,15,10.31250000,-0.13000000,0.20000000,0.19000000,-6.06250000,0.00000000,-0.06250000,0.08491027,-0.00381791,-0.10247265,349.37500000,1397.50000000,349.50785748,0.03847402,0.00026042,0.03986140,0.02276205,0.00649075,0.02276205,0.02356758,0.00927242,0.00649075,0.00927242,0.00770447
0,131739,15,10.31250000,-0.04000000,-0.18000000,0.25000000,13.75000000,0.31250000,0.25000000,-0.30925053,-0.02748894,-0.07391470,349.31250000,1397.25000000,349.46475196,0.01539173,-0.00233683,0.03986140,0.02276205,0.00649075,0.02276205,0.02356758,0.00927242,0.00649075,0.00927242,0.00770447
0,132123,15,10.31250000,-0.03000000,0.10000000,0.12000000,0.25000000,0.06250000,-0.25000000,-0.05528330,-0.00824668,-0.07895433,349.68750000,1398.75000000,349.54296866,0.05039959,0.00736763,0.03986140,0.02276205,0.00649075,0.02276205,0.02356758,0.00927242,0.00649075,0.00927242,0.00770447
0,132507,15,10.31250000,-0.02000000,0.11000000,0.10000000,2.75000000,-0.12500000,0.00000000,-0.09392053,-0.01282817,-0.08399397,349.62500000,1398.50000000,349.59018908,0.06753327,0.01167170,0.03986140,0.02276205,0.00649075,0.02276205,0.02356758,0.00927242,0.00649075,0.00927242,0.00770447
0,132891,15,10.31250000,-0.20000000,0.61000000,0.13000000,16.68750000,0.06250000,0.62500000,-0.10170906,-0.00290161,-0.11652254,349.50000000,1398.00000000,349.59013963,0.06134871,0.01044736,0.03986140,0.02276205,0.00649075,0.02276205,0.02356758,0.00927242,0.00649075,0.00927242,0.00770447
0,133275,15,10.31250000,0.67000000,0.03000000,0.08000000,23.00000000,0.31250000,0.81250000,-0.44211370,-0.02718350,-0.13057244,349.62500000,1398.50000000,349.62644342,0.07211942,0.01272204,0.03986140,0.02276205,0.00649075,0.02276205,0.02356758,0.00927242,0.00649075,0.00927242,0.00770447
0,133659,15,10.31250000,0.28000000,0.12000000,-0.32000000,103.31250000,-2.93750000,2.75000000,-1.92392004,-0.02306016,-0.02703079,349.62500000,1398.50000000,349.64896240,0.06901525,0.00697651,0.03986140,0.02276205,0.00649075,0.02276205,0.02356758,0.00927242,0.00649075,0.00927242,0.00770447
0,134043,15,10.31250000,-0.13000000,2.85000000,0.89000000,101.62500000,6.06250000,1.43750000,-2.09206080,-0.16982055,0.00045815,349.62500000,1398.50000000,349.68257375,0.08865126,0.02086845,0.03986140,0.02276205,0.00649075,0.02276205,0.02356758,0.00927242,0.00649075,0.00927242,0.00770447
0,134427,15,10.31250000,0.26000000,-0.22000000,0.21000000,19.18750000,-0.25000000,1.37500000,-0.45402560,-0.02428189,-0.05681047,349.81250000,1399.25000000,349.76208601,0.12027982,0.02838400,0.03986140,0.02276205,0.00649075,0.02276205,0.02356758,0.00927242,0.00649075,0.00927242,0.00770447
0,134811,15,10.31250000,0.14000000,-0.36000000,-0.04000000,52.87500000,1.93750000,0.62500000,-0.94409221,-0.06368271,-0.08994991,349.56250000,1398.25000000,349.74566403,0.09988754,0.02017550,0.03986140,0.02276205,0.00649075,0.02276205,0.02356758,0.00927242,0.00649075,0.00927242,0.00770447
0,135195,15,10.31250000,-0.08000000,-0.09000000,0.41000000,-3.56250000,0.00000000,0.06250000,0.14599679,-0.00351248,-0.12797627,349.75000000,1399.00000000,349.79291430,0.11728275,0.02671587,0.03986140,0.02276205,0.00649075,0.02276205,0.02356758,0.00927242,0.00649075,0.00927242,0.00770447
0,135579,15,10.31250000,0.35000000,-0.11000000,1.70000000,-75.12500000,-3.62500000,0.00000000,1.39536893,0.12492195,-0.10705413,349.75000000,1399.00000000,349.85323243,0.16000383,0.05314695,0.03986140,0.02276205,0.00649075,0.02276205,0.02356758,0.00927242,0.00649075,0.00927242,0.00770447
0,135963,15,10.31250000,-0.12000000,-0.34000000,0.74000000,-11.12500000,0.06250000,-0.37500000,-0.10858130,-0.00320704,-0.11224649,349.50000000,1398.00000000,349.81740820,0.14380897,0.05226208,0.03986140,0.02276205,0.00649075,0.02276205,0.02356758,0.00927242,0.00649075,0.00927242,0.00770447
0,136347,15,10.31250000,0.00000000,-0.76000000,0.32000000,11.37500000,-0.12500000,0.68750000,-0.19639316,-0.01404990,-0.08429940,349.62500000,1398.50000000,349.81943687,0.14139549,0.04990728,0.03986140,0.02276205,0.00649075,0.02276205,0.02356758,0.00927242,0.00649075,0.00927242,0.00770447
0,136757,15,10.31250000,0.08000000,-0.07000000,-0.07000000,31.68750000,-0.68750000,1.81250000,-0.54229563,-0.01985312,-0.13041973,349.50000000,1398.00000000,349.77383439,0.11022091,0.03667228,0.03986140,0.02276205,0.00649075,0.02276205,0.02356758,0.00927242,0.00649075,0.00927242,0.00770447
0,137115,15,10.31250000,0.04000000,-0.15000000,0.28000000,6.06250000,-0.12500000,0.18750000,-0.04902193,-0.01114829,-0.08338311,349.50000000,1398.00000000,349.73575500,0.08921733,0.03115375,0.03986140,0.02276205,0.00649075,0.02276205,0.02356758,0.00927242,0.00649075,0.00927242,0.00770447
0,137499,15,10.31250000,0.09000000,-0.14000000,0.30000000,-0.18750000,-0.25000000,0.00000000,-0.03543018,-0.01007928,-0.08979719,349.81250000,1399.25000000,349.80069068,0.11872675,0.03817434,0.03986140,0.02276205,0.00649075,0.02276205,0.02356758,0.00927242,0.00649075,0.00927242,0.00770447
0,137883,15,10.31250000,0.10000000,-0.03000000,0.21000000,0.68750000,-0.31250000,-0.06250000,-0.05329799,-0.01160644,-0.07345655,349.75000000,1399.00000000,349.83544792,0.12974484,0.03913050,0.03986140,0.02276205,0.00649075,0.02276205,0.02356758,0.00927242,0.00649075,0.00927242,0.00770447
0,138267,15,10.31250000,0.06000000,-0.08000000,0.19000000,0.93750000,0.00000000,0.12500000,-0.05879578,-0.01023199,-0.08888090,349.50000000,1398.00000000,349.78396975,0.09838504,0.02990720,0.03986140,0.02276205,0.00649075,0.02276205,0.02356758,0.00927242,0.00649075,0.00927242,0.00770447
0,138651,15,10.31250000,0.06000000,-0.09000000,0.20000000,0.18750000,0.00000000,0.00000000,-0.01847867,-0.00641409,-0.10476339,349.56250000,1398.25000000,349.75627574,0.08087131,0.02498154,0.03986140,0.02276205,0.00649075,0.02276205,0.02356758,0.00927242,0.00649075,0.00927242,0.00770447
0,139035,15,10.31250000,0.06000000,-0.09000000,0.19000000,0.18750000,-0.12500000,-0.12500000,-0.04153884,-0.00992656,-0.07773260,349.87500000,1399.50000000,349.82918239,0.11184398,0.03171828,0.03986140,0.02276205,0.00649075,0.02276205,0.02356758,0.00927242,0.00649075,0.00927242,0.00770447
0,139419,15,10.31250000,0.10000000,-0.05000000,0.23000000,0.31250000,-0.25000000,-0.06250000,-0.04352415,-0.01237002,-0.07895433,349.62500000,1398.50000000,349.81268089,0.09824103,0.02784082,0.03986140,0.02276205,0.00649075,0.02276205,0.02356758,0.00927242,0.00649075,0.00927242,0.00770447
0,139803,15,10.31250000,0.11000000,-0.09000000,0.16000000,0.25000000,-0.18750000,-0.06250000,-0.04123340,-0.01038471,-0.08017606,349.56250000,1398.25000000,349.77507289,0.07479748,0.02128940,0.03986140,0.02276205,0.00649075,0.02276205,0.02356758,0.00927242,0.00649075,0.00927242,0.00770447
0,140187,15,10.31250000,0.29000000,-0.05000000,0.32000000,37.87500000,-0.87500000,2.87500000,-0.42317688,0.00137445,-0.13011429,349.75000000,1399.00000000,349.80204757,0.08613437,0.02532544,0.03986140,0.02276205,0.00649075,0.02276205,0.02356758,0.00927242,0.00649075,0.00927242,0.00770447
0,140571,15,10.31250000,-0.18000000,0.00000000,0.13000000,3.43750000,-1.18750000,0.75000000,-0.14523321,0.00122173,-0.08949175,349.81250000,1399.25000000,349.84171906,0.09976848,0.02731082,0.03986140,0.02276205,0.00649075,0.02276205,0.02356758,0.00927242,0.00649075,0.00927242,0.00770447
0,140955,15,10.31250000,0.15000000,-0.10000000,-0.08000000,-9.18750000,-1.43750000,0.68750000,-0.00167988,0.01374447,-0.07223482,349.81250000,1399.25000000,349.87071198,0.10334272,0.02434995,0.03986140,0.02276205,0.00649075,0.02276205,0.02356758,0.00927242,0.00649075,0.00927242,0.00770447
0,141339,15,10.31250000,-0.03000000,-0.48000000,0.31000000,46.12500000,0.62500000,3.06250000,-0.66049802,-0.04688391,-0.03741549,349.56250000,1398.25000000,349.81892291,0.07352723,0.01836800,0.03986140,0.02276205,0.00649075,0.02276205,0.02356758,0.00927242,0.00649075,0.00927242,0.00770447
0,141723,15,10.31250000,0.05000000,0.32000000,0.57000000,1.87500000,0.00000000,-0.06250000,-0.21120664,-0.01389718,-0.07834347,349.75000000,1399.00000000,349.83544137,0.08312561,0.02514097,0.03986140,0.02276205,0.00649075,0.02276205,0.02356758,0.00927242,0.00649075,0.00927242,0.00770447
0,142107,15,10.31250000,-0.14000000,-0.09000000,-0.11000000,-17.68750000,0.68750000,-1.37500000,0.26740626,-0.00320704,-0.14431691,349.50000000,1398.00000000,349.76052472,0.03978593,0.01118807,0.03986140,0.02276205,0.00649075,0.02276205,0.02356758,0.00927242,0.00649075,0.00927242,0.00770447
0,142491,15,10.31250000,0.32000000,0.26000000,0.87000000,-34.25000000,-2.43750000,-0.81250000,0.66874468,0.06307183,-0.12492195,349.62500000,1398.50000000,349.74758729,0.04390890,0.02087465,0.03986140,0.02276205,0.00649075,0.02276205,0.02356758,0.00927242,0.00649075,0.00927242,0.00770447
0,142875,15,10.31250000,-0.67000000,0.40000000,1.18000000,25.56250000,3.06250000,0.31250000,0.10415252,-0.03665191,-0.09987646,349.37500000,1397.50000000,349.66676049,0.02352841,0.02742869,0.03986140,0.02276205,0.00649075,0.02276205,0.02356758,0.00927242,0.00649075,0.00927242,0.00770447
0,143259,15,10.37500000,-0.11000000,0.06000000,-0.01000000,38.00000000,5.06250000,-0.62500000,-0.57024270,-0.10797043,-0.13393220,349.81250000,1399.25000000,349.72325000,0.05473453,0.03178554,0.03986140,0.02276205,0.00649075,0.02276205,0.02356758,0.00927242,0.00649075,0.00927242,0.00770447
0,143643,15,10.31250000,0.13000000,-0.22000000,-0.12000000,3.87500000,-0.37500000,0.31250000,-0.09819658,-0.01450805,-0.07147123,349.50000000,1398.00000000,349.67324974,0.03018736,0.02146205,0.03986140,0.02276205,0.00649075,0.02276205,0.02356758,0.00927242,0.00649075,0.00927242,0.00770447
0,144027,15,10.37500000,0.03000000,-0.07000000,-0.06000000,27.87500000,0.00000000,1.56250000,-0.46578473,-0.01481348,-0.09101892,349.75000000,1399.00000000,349.70928164,0.04785899,0.02269262,0.03986140,0.02276205,0.00649075,0.02276205,0.02356758,0.00927242,0.00649075,0.00927242,0.00770447
0,144411,15,10.31250000,0.09000000,-0.22000000,-0.04000000,-1.93750000,-0.25000000,-0.18750000,0.03604105,-0.00183260,-0.13851370,349.43750000,1397.75000000,349.64208815,0.01471761,0.01220319,0.03986140,0.02276205,0.00649075,0.02276205,0.02356758,0.00927242,0.00649075,0.00927242,0.00770447
0,144795,15,10.37500000,0.11000000,-0.06000000,-0.01000000,5.00000000,-0.18750000,0.25000000,-0.12996158,0.01175916,-0.08918633,349.31250000,1397.25000000,349.54386368,-0.03005658,0.00045257,0.03986140,0.02276205,0.00649075,0.02276205,0.02356758,0.00927242,0.00649075,0.00927242,0.00770447
0,145179,15,10.37500000,-0.05000000,-0.11000000,0.06000000,-6.87500000,0.00000000,-0.43750000,0.03634648,-0.00198531,-0.12354749,349.93750000,1399.75000000,349.65805064,0.02991190,0.01506023,0.03986140,0.02276205,0.00649075,0.02276205,0.02356758,0.00927242,0.00649075,0.00927242,0.00770447
0,145563,15,10.31250000,0.08000000,-0.03000000,0.08000000,28.87500000,-0.56250000,1.56250000,-0.63804871,-0.02336559,-0.06078109,349.62500000,1398.50000000,349.66113433,0.03225559,0.01496586,0.03986140,0.02276205,0.00649075,0.02276205,0.02356758,0.00927242,0.00649075,0.00927242,0.00770447
0,145947,15,10.37500000,0.14000000,-0.14000000,0.14000000,-21.25000000,0.25000000,-1.00000000,0.39202276,0.00229074,-0.14706582,349.75000000,1399.00000000,349.70468558,0.05405181,0.02007711,0.03986140,0.02276205,0.00649075,0.02276205,0.02356758,0.00927242,0.00649075,0.00927242,0.00770447
0,146331,15,10.31250000,0.67000000,0.01000000,-0.15000000,-24.81250000,1.00000000,-2.68750000,0.22708917,-0.02779437,-0.16462818,349.31250000,1397.25000000,349.59978807,-0.00044983,0.00362724,0.03986140,0.02276205,0.00649075,0.02276205,0.02356758,0.00927242,0.00649075,0.00927242,0.00770447
0,146715,15,10.37500000,-0.04000000,-0.52000000,-0.36000000,-29.50000000,-2.62500000,-0.37500000,0.47494772,0.04505131,-0.11087204,349.50000000,1398.00000000,349.56235588,-0.02233105,-0.00591425,0.03986140,0.02276205,0.00649075,0.02276205,0.02356758,0.00927242,0.00649075,0.00927242,0.00770447
0,147099,15,10.31250000,0.00000000,0.47000000,1.51000000,33.18750000,4.50000000,-0.50000000,-0.22647828,-0.04214970,-0.13393220,349.56250000,1398.25000000,349.57818034,0.01068789,0.01957236,0.03986140,0.02276205,0.00649075,0.02276205,0.02356758,0.00927242,0.00649075,0.00927242,0.00770447
0,147483,15,10.31250000,0.10000000,-0.11000000,-0.09000000,2.12500000,-0.37500000,0.37500000,-0.14004086,-0.00839940,-0.08827002,349.62500000,1398.50000000,349.59671071,0.02254450,0.01932971,0.03986140,0.02276205,0.00649075,0.02276205,0.02356758,0.00927242,0.00649075,0.00927242,0.00770447
0,147867,15,10.37500000,0.29000000,-0.18000000,-0.47000000,-9.43750000,-1.62500000,-0.37500000,0.28160888,0.02840523,-0.14141530,349.62500000,1398.50000000,349.60768193,0.02272813,0.01205553,0.03986140,0.02276205,0.00649075,0.02276205,0.02356758,0.00927242,0.00649075,0.00927242,0.00770447
0,148251,15,10.37500000,0.38000000,-0.44000000,-1.20000000,-9.06250000,0.00000000,-2.37500000,0.05421429,-0.03512475,-0.11438452,349.37500000,1397.50000000,349.52378166,-0.03539116,-0.01634253,0.03986140,0.02276205,0.00649075,0.02276205,0.02356758,0.00927242,0.00649075,0.00927242,0.00770447
0,148635,15,10.37500000,-0.34000000,0.92000000,2.18000000,-20.18750000,-2.56250000,0.00000000,0.52228975,0.06536258,-0.08536842,349.56250000,1398.25000000,349.55718091,0.01520119,0.02191536,0.03986140,0.02276205,0.00649075,0.02276205,0.02356758,0.00927242,0.00649075,0.00927242,0.00770447
0,149022,15,10.37500000,-0.03000000,0.27000000,1.43000000,14.87500000,1.31250000,-0.75000000,-0.03756821,0.01007928,-0.12018774,349.62500000,1398.50000000,349.60899447,0.06635799,0.04786599,0.03986140,0.02276205,0.00649075,0.02276205,0.02356758,0.00927242,0.00649075,0.00927242,0.00770447
0,149403,15,10.37500000,-0.09000000,0.00000000,0.20000000,-5.50000000,-4.68750000,1.18750000,0.04978552,0.06108652,-0.06414085,349.75000000,1399.00000000,349.68487723,0.10905632,0.05517633,0.03986140,0.02276205,0.00649075,0.02276205,0.02356758,0.00927242,0.00649075,0.00927242,0.00770447
0,149787,15,10.31250000,0.26000000,-0.12000000,-0.04000000,-15.87500000,-3.00000000,0.43750000,0.00901026,0.03207042,-0.07727446,349.50000000,1398.00000000,349.67034401,0.10043152,0.04704201,0.03986140,0.02276205,0.00649075,0.02276205,0.02356758,0.00927242,0.00649075,0.00927242,0.00770447
0,150171,15,10.37500000,0.16000000,-0.96000000,-1.89000000,-46.68750000,-7.87500000,0.50000000,0.50869805,0.11667526,-0.08231409,349.62500000,1398.50000000,349.66608324,0.06658223,0.01280911,0.03986140,0.02276205,0.00649075,0.02276205,0.02356758,0.00927242,0.00649075,0.00927242,0.00770447
0,150555,15,10.37500000,0.37000000,0.48000000,0.72000000,4.87500000,-2.87500000,0.87500000,0.14202616,0.06215554,-0.06826419,349.56250000,1398.25000000,349.67111420,0.07253681,0.02100991,0.03986140,0.02276205,0.00649075,0.02276205,0.02356758,0.00927242,0.00649075,0.00927242,0.00770447
0,150939,15,10.37500000,0.18000000,-0.11000000,0.36000000,6.43750000,-0.18750000,0.50000000,-0.13301590,0.01160644,-0.15653421,349.56250000,1398.25000000,349.67141282,0.07230726,0.02284731,0.03986140,0.02276205,0.00649075,0.02276205,0.02356758,0.00927242,0.00649075,0.00927242,0.00770447
0,151323,15,10.37500000,0.39000000,-0.20000000,-0.40000000,5.25000000,0.37500000,-0.12500000,-0.09483683,-0.02687807,-0.10384709,349.68750000,1398.75000000,349.69881943,0.07356641,0.01619256,0.03986140,0.02276205,0.00649075,0.02276205,0.02356758,0.00927242,0.00649075,0.00927242,0.00770447
0,151707,15,10.37500000,0.00000000,0.01000000,0.12000000,-17.75000000,-0.43750000,-1.37500000,0.36774087,0.01893682,-0.12797627,349.62500000,1398.50000000,349.70634301,0.07119570,0.01527920,0.03986140,0.02276205,0.00649075,0.02276205,0.02356758,0.00927242,0.00649075,0.00927242,0.00770447
0,152094,15,10.37500000,0.03000000,0.03000000,0.16000000,19.62500000,-0.68750000,0.75000000,-0.12354749,0.00488692,-0.12828170,349.43750000,1397.75000000,349.65181495,0.04048903,0.00833710,0.03986140,0.02276205,0.00649075,0.02276205,0.02356758,0.00927242,0.00649075,0.00927242,0.00770447
0,152475,15,10.37500000,0.03000000,-0.50000000,-0.12000000,47.56250000,4.81250000,0.00000000,-0.71547592,-0.10919216,-0.13194689,349.37500000,1397.50000000,349.57810760,-0.00039519,-0.00341643,0.03986140,0.02276205,0.00649075,0.02276205,0.02356758,0.00927242,0.00649075,0.00927242,0.00770447
0,152859,15,10.37500000,0.21000000,-0.02000000,-0.30000000,1.81250000,1.31250000,-0.68750000,-0.04077525,-0.03344487,-0.10751228,349.62500000,1398.50000000,349.58772069,-0.00163525,-0.00677895,0.03986140,0.02276205,0.00649075,0.02276205,0.02356758,0.00927242,0.00649075,0.00927242,0.00770447
0,153243,15,10.37500000,0.05000000,-0.15000000,-0.16000000,0.93750000,-0.18750000,-0.50000000,-0.06734789,-0.01298089,-0.11881328,349.62500000,1398.50000000,349.59591098,-0.00224917,-0.00806415,0.03986140,0.02276205,0.00649075,0.02276205,0.02356758,0.00927242,0.00649075,0.00927242,0.00770447
0,153627,15,10.37500000,0.25000000,-0.55000000,0.07000000,36.62500000,4.12500000,-0.18750000,-0.49785516,-0.09132435,-0.11820243,349.43750000,1397.75000000,349.54558480,-0.02701278,-0.01220802,0.03986140,0.02276205,0.00649075,0.02276205,0.02356758,0.00927242,0.00649075,0.00927242,0.00770447
0,154011,15,10.37500000,0.39000000,-0.76000000,-0.91000000,-0.06250000,-1.06250000,0.93750000,-0.30405816,-0.02214386,-0.08155051,349.18750000,1396.75000000,349.40639051,-0.10567706,-0.03957493,0.03986140,0.02276205,0.00649075,0.02276205,0.02356758,0.00927242,0.00649075,0.00927242,0.00770447
0,154395,15,10.37500000,0.00000000,0.30000000,0.97000000,58.37500000,0.62500000,2.43750000,-0.65133500,0.00335976,-0.06918049,349.31250000,1397.25000000,349.34998779,-0.11121090,-0.02570033,0.03986140,0.02276205,0.00649075,0.02276205,0.02356758,0.00927242,0.00649075,0.00927242,0.00770447
0,154779,15,10.37500000,-0.39000000,-0.02000000,-0.33000000,-39.56250000,-8.31250000,0.62500000,0.69867712,0.15622878,-0.07757989,349.50000000,1398.00000000,349.34828713,-0.10581870,-0.02546989,0.03986140,0.02276205,0.00649075,0.02276205,0.02356758,0.00927242,0.00649075,0.00927242,0.00770447
0,155163,15,10.37500000,-0.34000000,-0.22000000,-0.66000000,-15.00000000,-5.25000000,1.56250000,0.18280143,0.08261952,-0.08475754,349.62500000,1398.50000000,349.38338987,-0.08921684,-0.02642599,0.03986140,0.02276205,0.00649075,0.02276205,0.02356758,0.00927242,0.00649075,0.00927242,0.00770447
0,155547,15,10.37500000,-0.30000000,0.19000000,0.03000000,-17.81250000,-5.18750000,2.68750000,0.29428431,0.09330966,-0.07376198,349.50000000,1398.00000000,349.38532183,-0.08066935,-0.02132457,0.03986140,0.02276205,0.00649075,0.02276205,0.02356758,0.00927242,0.00649075,0.00927242,0.00770447
0,155931,15,10.37500000,-0.02000000,0.68000000,0.76000000,-15.25000000,-5.43750000,1.81250000,0.31123585,0.11178834,-0.08475754,349.31250000,1397.25000000,349.34272101,-0.08143115,-0.01059399,0.03986140,0.02276205,0.00649075,0.02276205,0.02356758,0.00927242,0.00649075,0.00927242,0.00770447
0,156315,15,10.37500000,-0.01000000,0.13000000,0.40000000,6.75000000,2.50000000,-1.50000000,-0.18784106,-0.05818491,-0.13209960,349.62500000,1398.50000000,349.40699770,-0.03403244,0.00614869,0.03986140,0.02276205,0.00649075,0.02276205,0.02356758,0.00927242,0.00649075,0.00927242,0.00770447
0,156699,15,10.37500000,0.02000000,0.51000000,2.50000000,24.50000000,4.75000000,-1.81250000,-0.28909197,-0.01206459,-0.09101892,349.62500000,1398.50000000,349.50416341,0.05865109,0.05557564,0.03986140,0.02276205,0.00649075,0.02276205,0.02356758,0.00927242,0.00649075,0.00927242,0.00770447
0,157083,15,10.37500000,0.03000000,-0.12000000,0.04000000,-31.25000000,-2.06250000,-0.18750000,0.43081272,0.04230241,-0.10293079,349.37500000,1397.50000000,349.48939298,0.06029677,0.05077427,0.03986140,0.02276205,0.00649075,0.02276205,0.02356758,0.00927242,0.00649075,0.00927242,0.00770447
0,157467,15,10.37500000,0.16000000,0.00000000,0.36000000,-19.06250000,0.25000000,-1.18750000,0.19120082,-0.00794125,-0.11392637,349.50000000,1398.00000000,349.52445148,0.08840643,0.05623832,0.03986140,0.02276205,0.00649075,0.02276205,0.02356758,0.00927242,0.00649075,0.00927242,0.00770447
0,157851,15,10.37500000,0.04000000,-0.25000000,-0.27000000,-19.56250000,-0.50000000,-0.75000000,-0.04046982,-0.01298089,-0.09300423,349.68750000,1398.75000000,349.60852209,0.12644155,0.05624396,0.03986140,0.02276205,0.00649075,0.02276205,0.02356758,0.00927242,0.00649075,0.00927242,0.00770447
0,158235,15,10.37500000,-0.03000000,0.53000000,1.61000000,20.87500000,3.56250000,-1.00000000,0.06582073,0.03039055,-0.10231993,349.56250000,1398.25000000,349.67154004,0.17717218,0.08054745,0.03986140,0.02276205,0.00649075,0.02276205,0.02356758,0.00927242,0.00649075,0.00927242,0.00770447
0,158619,15,10.37500000,0.16000000,0.82000000,1.70000000,-24.56250000,-3.62500000,0.00000000,0.53023106,0.11117747,-0.09697486,349.75000000,1399.00000000,349.79613550,0.25716191,0.11016489,0.03986140,0.02276205,0.00649075,0.02276205,0.02356758,0.00927242,0.00649075,0.00927242,0.00770447
0,159003,15,10.37500000,0.09000000,0.18000000,0.02000000,-32.12500000,-7.06250000,2.37500000,0.42363507,0.12507465,-0.06902777,349.75000000,1399.00000000,349.88603231,0.29019204,0.10666801,0.03986140,0.02276205,0.00649075,0.02276205,0.02356758,0.00927242,0.00649075,0.00927242,0.00770447
0,159387,15,10.37500000,0.33000000,-0.20000000,-0.18000000,-46.75000000,-6.12500000,0.12500000,0.55985796,0.10170906,-0.08643743,349.81250000,1399.25000000,349.97638141,0.31325502,0.09887797,0.03986140,0.02276205,0.00649075,0.02276205,0.02356758,0.00927242,0.00649075,0.00927242,0.00770447
0,159771,15,10.37500000,-0.17000000,0.24000000,1.40000000,5.62500000,-0.37500000,0.25000000,-0.03543018,0.03054326,-0.08765917,349.81250000,1399.25000000,350.07223352,0.35686544,0.11459383,0.03986140,0.02276205,0.00649075,0.02276205,0.02356758,0.00927242,0.00649075,0.00927242,0.00770447
0,160155,15,10.37500000,-0.20000000,-0.13000000,-0.38000000,-5.62500000,0.31250000,-0.81250000,0.05543602,-0.02000584,-0.09636399,349.56250000,1398.25000000,350.04705848,0.31338558,0.08818276,0.03986140,0.02276205,0.00649075,0.02276205,0.02356758,0.00927242,0.00649075,0.00927242,0.00770447
0,160539,15,10.37500000,0.10000000,-0.14000000,-0.10000000,-1.06250000,-0.43750000,0.00000000,-0.06704246,-0.00778853,-0.09025533,349.62500000,1398.50000000,350.03615660,0.27997836,0.07000263,0.03986140,0.02276205,0.00649075,0.02276205,0.02356758,0.00927242,0.00649075,0.00927242,0.00770447
0,160923,15,10.37500000,0.31000000,-0.39000000,-0.27000000,16.31250000,1.68750000,0.00000000,-0.41722098,-0.05207626,-0.14233160,349.56250000,1398.25000000,349.99239448,0.22845751,0.04754736,0.03986140,0.02276205,0.00649075,0.02276205,0.02356758,0.00927242,0.00649075,0.00927242,0.00770447
0,161307,15,10.37500000,0.72000000,-0.71000000,-0.77000000,-11.37500000,-1.68750000,1.75000000,-0.15821409,-0.02076942,-0.06780604,349.50000000,1398.00000000,349.91365411,0.15449594,0.01650892,0.03986140,0.02276205,0.00649075,0.02276205,0.02356758,0.00927242,0.00649075,0.00927242,0.00770447
0,161691,15,10.37500000,-0.18000000,-0.50000000,-0.30000000,52.00000000,2.93750000,2.12500000,-0.82818055,-0.08811731,-0.10598512,349.56250000,1398.25000000,349.85737089,0.10131834,-0.00113922,0.03986140,0.02276205,0.00649075,0.02276205,0.02356758,0.00927242,0.00649075,0.00927242,0.00770447
0,162075,15,10.37500000,0.69000000,-0.31000000,0.97000000,15.81250000,0.06250000,0.81250000,0.12736541,0.01588250,-0.09896017,349.93750000,1399.75000000,349.93709525,0.13535733,0.01776873,0.03986140,0.02276205,0.00649075,0.02276205,0.02356758,0.00927242,0.00649075,0.00927242,0.00770447
